"Time (s)","Gyroscope x (rad/s)","Gyroscope y (rad/s)","Gyroscope z (rad/s)"
2.421951700E-2,-1.832595794E-3,-2.443460980E-3,0.000000000E0
2.645743200E-2,-4.581489484E-4,-1.527163113E-4,0.000000000E0
2.869730000E-2,7.635815418E-4,1.069014193E-3,0.000000000E0
3.092862300E-2,1.985311974E-3,-1.527163113E-4,0.000000000E0
3.316623300E-2,1.985311974E-3,-2.596177394E-3,-1.221730490E-3
3.540060800E-2,-4.581489484E-4,-1.374446787E-3,1.221730490E-3
3.763840100E-2,-4.581489484E-4,-1.527163113E-4,0.000000000E0
3.987515700E-2,-1.832595794E-3,-2.443460980E-3,1.221730490E-3
4.211246100E-2,-4.581489484E-4,-1.374446787E-3,0.000000000E0
4.434854500E-2,1.985311974E-3,-1.374446787E-3,0.000000000E0
4.658249300E-2,-6.108652451E-4,-2.443460980E-3,-1.221730490E-3
4.883707100E-2,6.108652451E-4,-2.596177394E-3,1.221730490E-3
5.107333800E-2,1.985311974E-3,-2.596177394E-3,-1.221730490E-3
5.331186400E-2,1.985311974E-3,-1.527163113E-4,-1.221730490E-3
5.554159900E-2,7.635815418E-4,-1.374446787E-3,-1.221730490E-3
5.776901600E-2,-4.581489484E-4,1.069014193E-3,-1.221730490E-3
6.001816200E-2,-6.108652451E-4,-3.665191587E-3,0.000000000E0
6.225571100E-2,7.635815418E-4,-1.527163113E-4,-1.221730490E-3
6.449411400E-2,1.985311974E-3,2.290744567E-3,0.000000000E0
6.672769600E-2,6.108652451E-4,-2.596177394E-3,1.221730490E-3
6.896420700E-2,-1.679879380E-3,2.290744567E-3,-1.221730490E-3
7.120236600E-2,7.635815418E-4,-1.527163113E-4,-2.443460980E-3
7.344241700E-2,-6.108652451E-4,-2.443460980E-3,0.000000000E0
7.567599900E-2,-4.581489484E-4,-1.527163113E-4,0.000000000E0
7.791177800E-2,-1.679879380E-3,-1.221730490E-3,-1.221730490E-3
8.014810500E-2,-4.581489484E-4,-1.527163113E-4,0.000000000E0
8.238461700E-2,-1.679879380E-3,-0.000000000E0,0.000000000E0
8.462149500E-2,7.635815418E-4,2.290744567E-3,0.000000000E0
8.685806700E-2,-4.581489484E-4,1.069014193E-3,0.000000000E0
8.909488300E-2,-1.679879380E-3,1.221730490E-3,1.221730490E-3
9.133176100E-2,-4.581489484E-4,2.290744567E-3,-2.443460980E-3
9.356851600E-2,-1.679879380E-3,-0.000000000E0,0.000000000E0
9.580539300E-2,1.985311974E-3,1.069014193E-3,-1.221730490E-3
9.804288100E-2,-4.581489484E-4,1.069014193E-3,0.000000000E0
1.002784770E-1,-2.901609987E-3,3.665191587E-3,1.221730490E-3
1.025155980E-1,7.635815418E-4,1.069014193E-3,1.221730490E-3
1.047528420E-1,-1.679879380E-3,1.221730490E-3,1.221730490E-3
1.069887430E-1,-2.901609987E-3,-0.000000000E0,0.000000000E0
1.092214700E-1,-4.581489484E-4,-1.527163113E-4,0.000000000E0
1.114456520E-1,-1.679879380E-3,-1.221730490E-3,-1.221730490E-3
1.136990090E-1,7.635815418E-4,-2.596177394E-3,-1.221730490E-3
1.159369240E-1,-4.581489484E-4,-1.374446787E-3,-1.221730490E-3
1.181763040E-1,-1.679879380E-3,-0.000000000E0,1.221730490E-3
1.204089090E-1,7.635815418E-4,-2.596177394E-3,-1.221730490E-3
1.226453590E-1,-4.581489484E-4,-1.527163113E-4,-1.221730490E-3
1.248825420E-1,-1.679879380E-3,-0.000000000E0,0.000000000E0
1.271193580E-1,-4.581489484E-4,-1.374446787E-3,1.221730490E-3
1.293559310E-1,-6.108652451E-4,-2.443460980E-3,-1.221730490E-3
1.315929910E-1,7.635815418E-4,-1.527163113E-4,-2.443460980E-3
1.338304790E-1,-1.679879380E-3,2.290744567E-3,-1.221730490E-3
1.360660750E-1,7.635815418E-4,-1.527163113E-4,1.221730490E-3
1.382996560E-1,-4.581489484E-4,1.069014193E-3,1.221730490E-3
1.405271950E-1,-3.054326167E-3,-1.221730490E-3,0.000000000E0
1.427760360E-1,6.108652451E-4,-3.817907767E-3,0.000000000E0
1.450090070E-1,-1.679879380E-3,-0.000000000E0,-1.221730490E-3
1.472370340E-1,-4.581489484E-4,-1.374446787E-3,-1.221730490E-3
1.494865460E-1,-4.581489484E-4,-1.374446787E-3,0.000000000E0
1.517240340E-1,-4.581489484E-4,-1.527163113E-4,1.221730490E-3
1.539635350E-1,-2.901609987E-3,1.221730490E-3,1.221730490E-3
1.561965070E-1,-1.832595794E-3,-2.443460980E-3,-1.221730490E-3
1.584314310E-1,7.635815418E-4,-1.527163113E-4,-2.443460980E-3
1.606635480E-1,-4.581489484E-4,2.290744567E-3,1.221730490E-3
1.629066510E-1,-4.581489484E-4,1.069014193E-3,2.443460980E-3
1.651405370E-1,7.635815418E-4,1.069014193E-3,0.000000000E0
1.673711890E-1,-4.581489484E-4,-1.374446787E-3,-1.221730490E-3
1.696178320E-1,-4.581489484E-4,-1.527163113E-4,0.000000000E0
1.718534890E-1,7.635815418E-4,-1.374446787E-3,0.000000000E0
1.740932360E-1,-4.581489484E-4,-1.374446787E-3,1.221730490E-3
1.763264500E-1,-1.832595794E-3,-1.221730490E-3,1.221730490E-3
1.785583230E-1,1.985311974E-3,1.069014193E-3,1.221730490E-3
1.808004500E-1,7.635815418E-4,-1.527163113E-4,1.221730490E-3
1.830367780E-1,1.985311974E-3,-1.527163113E-4,0.000000000E0
1.852754860E-1,1.985311974E-3,2.290744567E-3,-1.221730490E-3
1.875129130E-1,-4.581489484E-4,-1.527163113E-4,-1.221730490E-3
1.897524150E-1,-4.581489484E-4,2.290744567E-3,0.000000000E0
1.919840430E-1,-4.581489484E-4,3.512475174E-3,-1.221730490E-3
1.942203110E-1,-1.679879380E-3,-0.000000000E0,1.221730490E-3
1.964559670E-1,-1.679879380E-3,-0.000000000E0,-1.221730490E-3
1.986941870E-1,-1.679879380E-3,-0.000000000E0,1.221730490E-3
2.009305770E-1,-4.581489484E-4,-1.527163113E-4,0.000000000E0
2.031677590E-1,1.985311974E-3,-1.527163113E-4,1.221730490E-3
2.054026220E-1,1.985311974E-3,1.069014193E-3,1.221730490E-3
2.076298560E-1,3.207042580E-3,1.069014193E-3,-1.221730490E-3
2.098777200E-1,-1.679879380E-3,1.221730490E-3,-1.221730490E-3
2.121143540E-1,1.985311974E-3,-1.527163113E-4,1.221730490E-3
2.143537950E-1,-4.581489484E-4,2.290744567E-3,2.443460980E-3
2.165878640E-1,-4.581489484E-4,1.069014193E-3,0.000000000E0
2.188245590E-1,-1.679879380E-3,1.221730490E-3,1.221730490E-3
2.210614970E-1,-3.054326167E-3,-0.000000000E0,2.443460980E-3
2.232989850E-1,-4.581489484E-4,-1.527163113E-4,1.221730490E-3
2.255345190E-1,7.635815418E-4,-1.374446787E-3,1.221730490E-3
2.277711530E-1,-6.108652451E-4,-2.443460980E-3,0.000000000E0
2.300077250E-1,-4.581489484E-4,-1.527163113E-4,0.000000000E0
2.322449080E-1,-1.832595794E-3,-3.665191587E-3,2.443460980E-3
2.344819070E-1,1.985311974E-3,-1.374446787E-3,-1.221730490E-3
2.367182350E-1,-4.581489484E-4,1.069014193E-3,0.000000000E0
2.389553570E-1,7.635815418E-4,2.290744567E-3,0.000000000E0
2.411900370E-1,-4.581489484E-4,2.290744567E-3,-1.221730490E-3
2.434167220E-1,-1.679879380E-3,-0.000000000E0,0.000000000E0
2.456654400E-1,6.108652451E-4,-3.817907767E-3,0.000000000E0
2.479024400E-1,1.985311974E-3,-1.527163113E-4,-1.221730490E-3
2.501415140E-1,-4.581489484E-4,3.512475174E-3,0.000000000E0
2.523750960E-1,-4.581489484E-4,-1.527163113E-4,0.000000000E0
2.546115460E-1,1.985311974E-3,2.290744567E-3,1.221730490E-3
2.568490330E-1,7.635815418E-4,2.290744567E-3,2.443460980E-3
2.590843240E-1,7.635815418E-4,1.069014193E-3,0.000000000E0
2.613138770E-1,1.985311974E-3,-1.527163113E-4,1.221730490E-3
2.635585060E-1,-4.581489484E-4,2.290744567E-3,0.000000000E0
2.657953230E-1,-4.581489484E-4,-1.374446787E-3,1.221730490E-3
2.680342750E-1,-1.679879380E-3,-0.000000000E0,-1.221730490E-3
2.702692610E-1,-4.581489484E-4,-1.527163113E-4,-1.221730490E-3
2.725055280E-1,6.108652451E-4,-3.817907767E-3,0.000000000E0
2.747427100E-1,-4.581489484E-4,1.069014193E-3,0.000000000E0
2.769803200E-1,-4.581489484E-4,2.290744567E-3,1.221730490E-3
2.792157330E-1,1.985311974E-3,-1.374446787E-3,0.000000000E0
2.814523660E-1,6.108652451E-4,-3.817907767E-3,0.000000000E0
2.836890610E-1,1.985311974E-3,-1.374446787E-3,-1.221730490E-3
2.859259990E-1,7.635815418E-4,-1.527163113E-4,0.000000000E0
2.881595190E-1,7.635815418E-4,-1.374446787E-3,0.000000000E0
2.903861430E-1,-2.901609987E-3,2.443460980E-3,-1.221730490E-3
2.926364480E-1,-4.581489484E-4,2.290744567E-3,1.221730490E-3
2.948739360E-1,7.635815418E-4,-1.374446787E-3,1.221730490E-3
2.971128280E-1,-4.581489484E-4,-1.527163113E-4,-2.443460980E-3
2.993461040E-1,-1.679879380E-3,2.290744567E-3,0.000000000E0
3.015826760E-1,-1.679879380E-3,2.290744567E-3,0.000000000E0
3.038197980E-1,7.635815418E-4,-1.374446787E-3,1.221730490E-3
3.060566750E-1,-1.679879380E-3,-0.000000000E0,3.665191587E-3
3.082933700E-1,7.635815418E-4,-1.374446787E-3,0.000000000E0
3.105300030E-1,7.635815418E-4,1.069014193E-3,0.000000000E0
3.127676740E-1,-4.581489484E-4,1.069014193E-3,-3.665191587E-3
3.150015600E-1,1.985311974E-3,-1.374446787E-3,0.000000000E0
3.172344090E-1,1.985311974E-3,-1.527163113E-4,1.221730490E-3
3.194776350E-1,7.635815418E-4,1.069014193E-3,1.221730490E-3
3.217133520E-1,-4.276056774E-3,-3.665191587E-3,0.000000000E0
3.239515730E-1,-6.108652451E-4,-2.443460980E-3,-1.221730490E-3
3.261834450E-1,7.635815418E-4,-1.374446787E-3,0.000000000E0
3.284113510E-1,7.635815418E-4,-1.374446787E-3,-1.221730490E-3
3.306583600E-1,-4.581489484E-4,-1.527163113E-4,0.000000000E0
3.328969460E-1,-6.108652451E-4,-2.443460980E-3,0.000000000E0
3.351337020E-1,6.108652451E-4,-1.374446787E-3,3.665191587E-3
3.373560520E-1,-4.581489484E-4,1.069014193E-3,2.443460980E-3
3.395951880E-1,7.635815418E-4,-1.374446787E-3,0.000000000E0
3.418439070E-1,-6.108652451E-4,-2.443460980E-3,0.000000000E0
3.440834700E-1,-6.108652451E-4,-3.665191587E-3,0.000000000E0
3.463205910E-1,7.635815418E-4,-1.527163113E-4,-1.221730490E-3
3.485550880E-1,6.108652451E-4,-3.817907767E-3,0.000000000E0
3.507907450E-1,7.635815418E-4,-1.374446787E-3,0.000000000E0
3.530275000E-1,-6.108652451E-4,-2.443460980E-3,1.221730490E-3
3.552598010E-1,-4.581489484E-4,-1.374446787E-3,1.221730490E-3
3.574847760E-1,6.108652451E-4,-2.596177394E-3,1.221730490E-3
3.597374610E-1,1.832595794E-3,-5.039638374E-3,0.000000000E0
3.619743390E-1,-1.679879380E-3,-0.000000000E0,-1.221730490E-3
3.642153660E-1,-6.108652451E-4,-1.374446787E-3,2.443460980E-3
3.664487040E-1,7.635815418E-4,2.290744567E-3,1.221730490E-3
3.686844830E-1,7.635815418E-4,1.069014193E-3,-1.221730490E-3
3.709209940E-1,-4.581489484E-4,-1.527163113E-4,1.221730490E-3
3.731573830E-1,6.108652451E-4,-2.596177394E-3,2.443460980E-3
3.753914530E-1,-6.108652451E-4,-2.443460980E-3,1.221730490E-3
3.776193580E-1,7.635815418E-4,-3.970623948E-3,-1.221730490E-3
3.798681380E-1,9.162978968E-4,2.138028387E-3,1.221730490E-3
3.821049540E-1,3.359758761E-3,-3.054326226E-4,1.221730490E-3
3.843454330E-1,9.162978968E-4,3.359758761E-3,0.000000000E0
3.865780370E-1,-1.374446787E-3,7.024950348E-3,0.000000000E0
3.888151590E-1,-1.679879380E-3,-1.374446787E-3,0.000000000E0
3.910524640E-1,2.138028387E-3,-2.748893574E-3,-1.221730490E-3
3.932884870E-1,2.138028387E-3,-1.527163084E-3,-1.221730490E-3
3.955218240E-1,-3.054326226E-4,-3.054326226E-4,-1.221730490E-3
3.977493630E-1,-4.581489484E-4,-2.596177394E-3,0.000000000E0
3.999984470E-1,9.162978968E-4,9.162978968E-4,1.221730490E-3
4.022363630E-1,9.162978968E-4,2.138028387E-3,0.000000000E0
4.044751320E-1,9.162978968E-4,-3.054326226E-4,0.000000000E0
4.067087140E-1,2.138028387E-3,-3.054326226E-4,1.221730490E-3
4.089449810E-1,9.162978968E-4,2.138028387E-3,0.000000000E0
4.111819800E-1,9.162978968E-4,-3.054326226E-4,-1.221730490E-3
4.134186140E-1,-4.581489484E-4,-2.596177394E-3,0.000000000E0
4.156554910E-1,9.162978968E-4,9.162978968E-4,1.221730490E-3
4.178925510E-1,2.138028387E-3,9.162978968E-4,0.000000000E0
4.201301000E-1,9.162978968E-4,-3.054326226E-4,0.000000000E0
4.223656350E-1,3.359758761E-3,9.162978968E-4,0.000000000E0
4.246022070E-1,-1.527163084E-3,2.138028387E-3,0.000000000E0
4.268387800E-1,2.138028387E-3,2.138028387E-3,1.221730490E-3
4.290758400E-1,3.359758761E-3,3.359758761E-3,0.000000000E0
4.313124120E-1,9.162978968E-4,-3.054326226E-4,0.000000000E0
4.335489850E-1,4.581489135E-3,9.162978968E-4,0.000000000E0
4.357860450E-1,9.162978968E-4,-1.527163084E-3,0.000000000E0
4.380236550E-1,-3.054326226E-4,-3.054326226E-4,1.221730490E-3
4.402594950E-1,-3.054326226E-4,-3.054326226E-4,0.000000000E0
4.424960060E-1,2.138028387E-3,2.138028387E-3,-1.221730490E-3
4.447323340E-1,-1.527163084E-3,1.069014193E-3,0.000000000E0
4.469693950E-1,-3.054326226E-4,-1.527163084E-3,0.000000000E0
4.492062110E-1,2.138028387E-3,-1.527163084E-3,-1.221730490E-3
4.514427840E-1,-2.901609987E-3,-1.374446787E-3,-1.221730490E-3
4.536797220E-1,-3.054326226E-4,-3.054326226E-4,0.000000000E0
4.559176370E-1,-3.054326226E-4,2.138028387E-3,1.221730490E-3
4.581529890E-1,-4.581489484E-4,-5.039638374E-3,-1.221730490E-3
4.603898660E-1,-2.901609987E-3,-3.817907767E-3,0.000000000E0
4.626270490E-1,-3.054326226E-4,9.162978968E-4,-2.443460980E-3
4.648631940E-1,-4.581489484E-4,-2.596177394E-3,-1.221730490E-3
4.670998270E-1,-3.054326226E-4,-1.527163084E-3,1.221730490E-3
4.693363380E-1,-2.901609987E-3,-1.374446787E-3,0.000000000E0
4.715734600E-1,-3.054326226E-4,-3.054326226E-4,1.221730490E-3
4.738112530E-1,-1.527163084E-3,1.069014193E-3,1.221730490E-3
4.760468480E-1,-1.527163084E-3,-1.374446787E-3,-2.443460980E-3
4.782836650E-1,-3.054326226E-4,-3.054326226E-4,1.221730490E-3
4.805198710E-1,-3.054326226E-4,9.162978968E-4,1.221730490E-3
4.827568090E-1,-3.054326226E-4,-3.054326226E-4,0.000000000E0
4.849937480E-1,-3.054326226E-4,-3.054326226E-4,1.221730490E-3
4.872300760E-1,-1.527163084E-3,4.581489135E-3,2.443460980E-3
4.894669530E-1,-3.054326226E-4,-3.054326226E-4,1.221730490E-3
4.917044410E-1,7.635815418E-4,-2.748893574E-3,1.221730490E-3
4.939404030E-1,-1.527163084E-3,3.359758761E-3,1.221730490E-3
4.961772200E-1,3.359758761E-3,9.162978968E-4,1.221730490E-3
4.984136700E-1,9.162978968E-4,-3.054326226E-4,-1.221730490E-3
5.006510970E-1,-1.527163084E-3,-1.527163113E-4,-1.221730490E-3
5.028873640E-1,9.162978968E-4,3.359758761E-3,-2.443460980E-3
5.051210060E-1,3.359758761E-3,-1.527163084E-3,-1.221730490E-3
5.073489720E-1,-2.901609987E-3,-2.596177394E-3,-1.221730490E-3
5.095985450E-1,9.162978968E-4,-3.054326226E-4,1.221730490E-3
5.118342020E-1,-2.748893574E-3,-1.527163113E-4,1.221730490E-3
5.140710790E-1,3.359758761E-3,-1.527163084E-3,0.000000000E0
5.162928810E-1,3.359758761E-3,-1.527163084E-3,-1.221730490E-3
5.185326880E-1,3.359758761E-3,-3.054326226E-4,-1.221730490E-3
5.207811620E-1,2.138028387E-3,2.138028387E-3,-1.221730490E-3
5.230206650E-1,7.635815418E-4,-2.748893574E-3,1.221730490E-3
5.252536360E-1,-1.679879380E-3,-2.596177394E-3,1.221730490E-3
5.274756820E-1,2.138028387E-3,2.138028387E-3,0.000000000E0
5.297276960E-1,9.162978968E-4,9.162978968E-4,0.000000000E0
5.319647560E-1,9.162978968E-4,-3.054326226E-4,-1.221730490E-3
5.342061500E-1,-1.679879380E-3,-2.596177394E-3,-1.221730490E-3
5.364379620E-1,9.162978968E-4,-3.054326226E-4,1.221730490E-3
5.386747780E-1,9.162978968E-4,2.138028387E-3,1.221730490E-3
5.409112900E-1,9.162978968E-4,2.138028387E-3,0.000000000E0
5.431484110E-1,9.162978968E-4,9.162978968E-4,0.000000000E0
5.453858990E-1,9.162978968E-4,-1.527163084E-3,0.000000000E0
5.476214950E-1,2.138028387E-3,-3.054326226E-4,0.000000000E0
5.498583110E-1,4.581489135E-3,3.359758761E-3,0.000000000E0
5.520946390E-1,2.138028387E-3,2.138028387E-3,1.221730490E-3
5.543271220E-1,2.138028387E-3,9.162978968E-4,-1.221730490E-3
5.565497780E-1,-3.054326226E-4,-3.054326226E-4,-2.443460980E-3
5.588044170E-1,-3.054326226E-4,-1.527163084E-3,1.221730490E-3
5.610422710E-1,-1.679879380E-3,-2.596177394E-3,-1.221730490E-3
5.632845810E-1,9.162978968E-4,-3.054326226E-4,-1.221730490E-3
5.655155370E-1,-1.679879380E-3,-2.596177394E-3,1.221730490E-3
5.677521100E-1,-1.527163084E-3,-1.374446787E-3,0.000000000E0
5.699883770E-1,2.138028387E-3,-3.054326226E-4,0.000000000E0
5.722254980E-1,3.359758761E-3,2.138028387E-3,1.221730490E-3
5.744591410E-1,-1.527163084E-3,1.069014193E-3,0.000000000E0
5.766872290E-1,-3.054326226E-4,9.162978968E-4,0.000000000E0
5.789360080E-1,-1.527163084E-3,1.069014193E-3,0.000000000E0
5.811734960E-1,-1.527163084E-3,1.069014193E-3,-2.443460980E-3
5.834117780E-1,-4.123340361E-3,-2.596177394E-3,-1.527163113E-4
5.856456030E-1,9.162978968E-4,-3.054326226E-4,-1.221730490E-3
5.878819320E-1,9.162978968E-4,9.162978968E-4,-1.221730490E-3
5.901191140E-1,2.138028387E-3,9.162978968E-4,-1.221730490E-3
5.923559310E-1,3.359758761E-3,-3.054326226E-4,-1.221730490E-3
5.945927470E-1,-1.527163084E-3,1.069014193E-3,0.000000000E0
5.968296240E-1,-1.527163084E-3,1.069014193E-3,-1.221730490E-3
5.990672950E-1,-3.054326226E-4,9.162978968E-4,0.000000000E0
6.013026470E-1,-3.054326226E-4,-3.054326226E-4,1.221730490E-3
6.035391580E-1,-3.054326226E-4,9.162978968E-4,0.000000000E0
6.057745100E-1,-1.679879380E-3,-2.596177394E-3,-1.221730490E-3
6.080129130E-1,-1.679879380E-3,-3.817907767E-3,0.000000000E0
6.102496680E-1,-4.581489484E-4,-5.039638374E-3,-1.221730490E-3
6.124865460E-1,7.635815418E-4,-3.970623948E-3,0.000000000E0
6.147231180E-1,-3.054326226E-4,9.162978968E-4,0.000000000E0
6.169608500E-1,-1.527163084E-3,2.138028387E-3,-1.221730490E-3
6.191965070E-1,9.162978968E-4,2.138028387E-3,0.000000000E0
6.214333230E-1,-1.527163084E-3,3.359758761E-3,0.000000000E0
6.236695900E-1,-1.527163084E-3,3.359758761E-3,0.000000000E0
6.259066510E-1,-3.054326226E-4,4.581489135E-3,1.221730490E-3
6.281431620E-1,-3.054326226E-4,9.162978968E-4,1.221730490E-3
6.303797950E-1,-4.581489484E-4,-2.596177394E-3,-1.221730490E-3
6.326169170E-1,9.162978968E-4,-3.054326226E-4,-2.443460980E-3
6.348547100E-1,9.162978968E-4,-1.527163084E-3,1.221730490E-3
6.370903060E-1,9.162978968E-4,9.162978968E-4,1.221730490E-3
6.393268780E-1,2.138028387E-3,-3.054326226E-4,0.000000000E0
6.415633280E-1,-3.054326226E-4,-3.054326226E-4,0.000000000E0
6.438002050E-1,-3.054326226E-4,9.162978968E-4,0.000000000E0
6.460370220E-1,-3.054326226E-4,9.162978968E-4,1.221730490E-3
6.482735940E-1,2.138028387E-3,-1.527163084E-3,1.221730490E-3
6.505107160E-1,9.162978968E-4,-1.527163084E-3,2.443460980E-3
6.527482030E-1,-3.054326226E-4,-3.054326226E-4,1.221730490E-3
6.549838600E-1,-1.527163084E-3,-1.374446787E-3,0.000000000E0
6.572206770E-1,-4.581489484E-4,-3.817907767E-3,-1.221730490E-3
6.594571880E-1,-3.054326226E-4,-3.054326226E-4,-1.221730490E-3
6.616941260E-1,4.581489135E-3,-2.748893574E-3,0.000000000E0
6.639310650E-1,9.162978968E-4,9.162978968E-4,0.000000000E0
6.661673320E-1,-3.054326226E-4,-3.054326226E-4,0.000000000E0
6.684042700E-1,-2.748893574E-3,2.290744567E-3,-1.221730490E-3
6.706419410E-1,2.138028387E-3,-3.054326226E-4,0.000000000E0
6.728775980E-1,2.138028387E-3,-1.527163084E-3,0.000000000E0
6.751147800E-1,-3.054326226E-4,-3.054326226E-4,-1.221730490E-3
6.773528790E-1,-3.054326226E-4,9.162978968E-4,1.221730490E-3
6.795875590E-1,2.138028387E-3,9.162978968E-4,2.443460980E-3
6.818244360E-1,-3.054326226E-4,2.138028387E-3,1.221730490E-3
6.840606430E-1,9.162978968E-4,9.162978968E-4,0.000000000E0
6.862980690E-1,9.162978968E-4,9.162978968E-4,1.221730490E-3
6.885356180E-1,-4.581489484E-4,-2.596177394E-3,1.221730490E-3
6.907714580E-1,-4.581489484E-4,-2.596177394E-3,-1.221730490E-3
6.930082740E-1,9.162978968E-4,-3.054326226E-4,0.000000000E0
6.952450300E-1,9.162978968E-4,9.162978968E-4,1.221730490E-3
6.974833110E-1,-3.054326226E-4,9.162978968E-4,1.221730490E-3
6.997181130E-1,-3.054326226E-4,-1.527163084E-3,1.221730490E-3
7.019547460E-1,9.162978968E-4,-3.054326226E-4,-1.221730490E-3
7.041883890E-1,7.635815418E-4,-2.748893574E-3,0.000000000E0
7.064173930E-1,-3.054326226E-4,-1.527163084E-3,0.000000000E0
7.086650130E-1,-1.527163084E-3,-1.374446787E-3,0.000000000E0
7.109017680E-1,-4.581489484E-4,-2.596177394E-3,-1.221730490E-3
7.131410870E-1,2.138028387E-3,9.162978968E-4,1.221730490E-3
7.153722270E-1,-1.527163084E-3,-1.527163113E-4,1.221730490E-3
7.176000100E-1,7.635815418E-4,-3.970623948E-3,0.000000000E0
7.198486060E-1,-4.581489484E-4,-2.596177394E-3,0.000000000E0
7.220856670E-1,-3.054326226E-4,9.162978968E-4,0.000000000E0
7.243261460E-1,-3.054326226E-4,-3.054326226E-4,1.221730490E-3
7.265588110E-1,-1.679879380E-3,-5.039638374E-3,-2.443460980E-3
7.287955670E-1,-2.748893574E-3,1.069014193E-3,-2.443460980E-3
7.310318950E-1,-1.527163084E-3,3.359758761E-3,-1.221730490E-3
7.332690160E-1,-2.748893574E-3,4.734205548E-3,0.000000000E0
7.355027810E-1,-3.054326226E-4,9.162978968E-4,1.221730490E-3
7.377275120E-1,-3.054326226E-4,-3.054326226E-4,0.000000000E0
7.399647570E-1,-3.054326226E-4,-3.054326226E-4,-1.221730490E-3
7.422049300E-1,-1.527163084E-3,-1.374446787E-3,-2.443460980E-3
7.444552960E-1,-2.748893574E-3,-1.374446787E-3,-1.221730490E-3
7.466923560E-1,9.162978968E-4,9.162978968E-4,0.000000000E0
7.489298440E-1,-3.054326226E-4,-3.054326226E-4,0.000000000E0
7.511625710E-1,-3.054326226E-4,-1.527163084E-3,1.221730490E-3
7.533993270E-1,-3.054326226E-4,-3.054326226E-4,1.221730490E-3
7.556355940E-1,-4.581489484E-4,-2.596177394E-3,1.221730490E-3
7.578730200E-1,-3.054326226E-4,-3.054326226E-4,1.221730490E-3
7.601105080E-1,-3.054326226E-4,9.162978968E-4,1.221730490E-3
7.623461650E-1,9.162978968E-4,-1.527163084E-3,2.443460980E-3
7.645829200E-1,9.162978968E-4,-1.527163084E-3,0.000000000E0
7.668192490E-1,2.138028387E-3,9.162978968E-4,0.000000000E0
7.690563700E-1,3.359758761E-3,-3.054326226E-4,1.221730490E-3
7.712931860E-1,7.635815418E-4,-2.748893574E-3,0.000000000E0
7.735300030E-1,9.162978968E-4,9.162978968E-4,0.000000000E0
7.757668190E-1,2.138028387E-3,-1.527163084E-3,1.221730490E-3
7.780043070E-1,-1.527163084E-3,-1.374446787E-3,0.000000000E0
7.802399030E-1,-4.581489484E-4,-2.596177394E-3,0.000000000E0
7.824767190E-1,9.162978968E-4,9.162978968E-4,-1.221730490E-3
7.847130470E-1,-4.581489484E-4,-2.596177394E-3,-1.221730490E-3
7.869501690E-1,9.162978968E-4,-1.527163084E-3,-2.443460980E-3
7.891869240E-1,2.138028387E-3,-3.054326226E-4,-1.221730490E-3
7.914234960E-1,-3.054326226E-4,9.162978968E-4,1.221730490E-3
7.936603740E-1,3.359758761E-3,9.162978968E-4,0.000000000E0
7.958980450E-1,-3.054326226E-4,-1.527163084E-3,-1.221730490E-3
7.981334570E-1,-2.901609987E-3,-3.817907767E-3,0.000000000E0
8.003703350E-1,-3.054326226E-4,-3.054326226E-4,-2.443460980E-3
8.026067850E-1,-3.054326226E-4,-3.054326226E-4,-1.221730490E-3
8.048437840E-1,-3.054326226E-4,2.138028387E-3,-1.221730490E-3
8.070808450E-1,-3.054326226E-4,9.162978968E-4,0.000000000E0
8.093175390E-1,-1.527163084E-3,-1.527163113E-4,0.000000000E0
8.115541730E-1,2.138028387E-3,-3.054326226E-4,-1.221730490E-3
8.137916000E-1,-1.527163084E-3,-1.374446787E-3,0.000000000E0
8.160271950E-1,-3.054326226E-4,9.162978968E-4,0.000000000E0
8.182643780E-1,-2.748893574E-3,-1.527163113E-4,-1.221730490E-3
8.205016220E-1,-1.527163084E-3,1.069014193E-3,0.000000000E0
8.227375220E-1,2.138028387E-3,9.162978968E-4,1.221730490E-3
8.249742780E-1,-3.054326226E-4,-3.054326226E-4,0.000000000E0
8.272106060E-1,2.138028387E-3,-1.527163084E-3,0.000000000E0
8.294479710E-1,2.138028387E-3,9.162978968E-4,1.221730490E-3
8.316854590E-1,9.162978968E-4,2.138028387E-3,1.221730490E-3
8.339210550E-1,-1.527163084E-3,-1.527163113E-4,-1.221730490E-3
8.361546360E-1,-4.581489484E-4,-2.596177394E-3,0.000000000E0
8.383805890E-1,-1.679879380E-3,-1.374446787E-3,2.443460980E-3
8.406246680E-1,1.985311974E-3,-3.970623948E-3,1.221730490E-3
8.428678930E-1,2.138028387E-3,9.162978968E-4,1.221730490E-3
8.451046490E-1,9.162978968E-4,2.138028387E-3,1.221730490E-3
8.473312110E-1,9.162978968E-4,2.138028387E-3,0.000000000E0
8.495793190E-1,-1.527163084E-3,1.069014193E-3,-2.443460980E-3
8.518148540E-1,-1.527163084E-3,-1.527163113E-4,0.000000000E0
8.540544780E-1,9.162978968E-4,-1.527163084E-3,-1.221730490E-3
8.562879380E-1,9.162978968E-4,-2.748893574E-3,-2.443460980E-3
8.585248150E-1,-4.581489484E-4,-2.596177394E-3,0.000000000E0
8.607616920E-1,-3.054326226E-4,2.138028387E-3,0.000000000E0
8.629984480E-1,-3.054326226E-4,9.162978968E-4,1.221730490E-3
8.652364240E-1,-3.054326226E-4,3.359758761E-3,0.000000000E0
8.674772070E-1,9.162978968E-4,9.162978968E-4,-2.443460980E-3
8.697084090E-1,9.162978968E-4,-1.527163084E-3,2.443460980E-3
8.719452250E-1,-3.054326226E-4,-1.527163084E-3,1.221730490E-3
8.741781960E-1,-1.679879380E-3,-2.596177394E-3,0.000000000E0
8.764095800E-1,-3.054326226E-4,-3.054326226E-4,1.221730490E-3
8.786552470E-1,-1.679879380E-3,-2.596177394E-3,0.000000000E0
8.808922460E-1,-3.054326226E-4,-1.527163084E-3,1.221730490E-3
8.831312000E-1,2.138028387E-3,-1.527163084E-3,2.443460980E-3
8.853639260E-1,-3.054326226E-4,2.138028387E-3,0.000000000E0
8.875902450E-1,-3.054326226E-4,3.359758761E-3,0.000000000E0
8.898393290E-1,-3.054326226E-4,-3.054326226E-4,1.221730490E-3
8.920762070E-1,-3.054326226E-4,9.162978968E-4,0.000000000E0
8.943151590E-1,-3.054326226E-4,-3.054326226E-4,0.000000000E0
8.965489850E-1,-1.527163084E-3,1.069014193E-3,0.000000000E0
8.987855570E-1,-1.527163084E-3,-1.527163113E-4,0.000000000E0
9.010226780E-1,9.162978968E-4,-1.527163084E-3,1.221730490E-3
9.032590060E-1,2.138028387E-3,9.162978968E-4,1.221730490E-3
9.054911230E-1,-1.527163084E-3,-1.527163113E-4,0.000000000E0
9.077326390E-1,-1.527163084E-3,-1.527163113E-4,0.000000000E0
9.099691510E-1,9.162978968E-4,9.162978968E-4,-1.221730490E-3
9.122071880E-1,-2.748893574E-3,-1.527163113E-4,0.000000000E0
9.144427840E-1,-1.527163084E-3,-1.527163113E-4,-1.221730490E-3
9.166793560E-1,-3.054326226E-4,9.162978968E-4,-1.221730490E-3
9.189164770E-1,-1.527163084E-3,1.069014193E-3,0.000000000E0
9.211539650E-1,-1.527163084E-3,-1.527163113E-4,0.000000000E0
9.233896220E-1,9.162978968E-4,-1.527163084E-3,0.000000000E0
9.256264380E-1,-3.054326226E-4,9.162978968E-4,0.000000000E0
9.278629500E-1,-3.054326226E-4,-3.054326226E-4,0.000000000E0
9.300998270E-1,3.359758761E-3,9.162978968E-4,-2.443460980E-3
9.323365820E-1,9.162978968E-4,9.162978968E-4,0.000000000E0
9.345731550E-1,-3.970623948E-3,1.069014193E-3,1.221730490E-3
9.368102760E-1,-1.527163084E-3,1.069014193E-3,1.221730490E-3
9.390477640E-1,9.162978968E-4,-3.054326226E-4,1.221730490E-3
9.412805520E-1,9.162978968E-4,2.138028387E-3,0.000000000E0
9.435087020E-1,2.138028387E-3,-2.748893574E-3,-1.221730490E-3
9.457564430E-1,9.162978968E-4,-3.054326226E-4,0.000000000E0
9.479933820E-1,-3.054326226E-4,9.162978968E-4,-1.221730490E-3
9.502331880E-1,-2.901609987E-3,-2.596177394E-3,0.000000000E0
9.524667090E-1,-1.679879380E-3,-1.374446787E-3,1.221730490E-3
9.547038920E-1,-1.527163084E-3,2.138028387E-3,-1.221730490E-3
9.569415630E-1,9.162978968E-4,-3.054326226E-4,-1.221730490E-3
9.591772200E-1,2.138028387E-3,-1.527163084E-3,-1.221730490E-3
9.614140360E-1,3.359758761E-3,-1.527163084E-3,-1.221730490E-3
9.636512190E-1,-3.054326226E-4,-1.527163084E-3,-1.221730490E-3
9.658871200E-1,-1.679879380E-3,-3.817907767E-3,1.221730490E-3
9.681239360E-1,-1.679879380E-3,-3.817907767E-3,0.000000000E0
9.703572730E-1,-5.345070735E-3,-1.527163113E-4,0.000000000E0
9.725856670E-1,-3.054326226E-4,2.138028387E-3,1.221730490E-3
9.748351180E-1,-3.054326226E-4,9.162978968E-4,0.000000000E0
9.770707740E-1,-1.679879380E-3,-2.596177394E-3,1.221730490E-3
9.793106430E-1,9.162978968E-4,-1.527163084E-3,0.000000000E0
9.815443460E-1,-4.581489484E-4,-5.039638374E-3,-1.221730490E-3
9.837809790E-1,-3.054326226E-4,-3.054326226E-4,1.221730490E-3
9.860177960E-1,9.162978968E-4,4.581489135E-3,1.221730490E-3
9.882544290E-1,9.162978968E-4,3.359758761E-3,0.000000000E0
9.904912450E-1,9.162978968E-4,2.138028387E-3,1.221730490E-3
9.927291610E-1,7.635815418E-4,-2.748893574E-3,1.221730490E-3
9.949645120E-1,-3.054326226E-4,-1.527163084E-3,-1.221730490E-3
9.972013890E-1,-1.527163084E-3,-1.527163113E-4,-1.221730490E-3
9.994375960E-1,9.162978968E-4,2.138028387E-3,-1.221730490E-3
1.001674717E0,-3.054326226E-4,9.162978968E-4,-1.221730490E-3
1.003911289E0,2.138028387E-3,9.162978968E-4,-1.221730490E-3
1.006148106E0,9.162978968E-4,9.162978968E-4,0.000000000E0
1.008384983E0,9.162978968E-4,-3.054326226E-4,0.000000000E0
1.010622776E0,-3.054326226E-4,9.162978968E-4,0.000000000E0
1.012855381E0,-3.054326226E-4,9.162978968E-4,3.665191587E-3
1.015080539E0,-1.527163084E-3,1.069014193E-3,0.000000000E0
1.017320652E0,-1.527163084E-3,-1.374446787E-3,-1.221730490E-3
1.019568333E0,-1.527163084E-3,-1.374446787E-3,0.000000000E0
1.021808323E0,7.635815418E-4,-2.748893574E-3,1.221730490E-3
1.024041600E0,-1.527163084E-3,1.069014193E-3,0.000000000E0
1.026263828E0,-3.054326226E-4,-1.527163084E-3,0.000000000E0
1.028504246E0,-3.054326226E-4,-1.527163084E-3,0.000000000E0
1.030751866E0,-4.581489484E-4,-2.596177394E-3,1.221730490E-3
1.032991978E0,7.635815418E-4,-2.748893574E-3,0.000000000E0
1.035228245E0,2.138028387E-3,2.138028387E-3,0.000000000E0
1.037458164E0,-3.054326226E-4,9.162978968E-4,1.221730490E-3
1.039698643E0,-3.054326226E-4,-3.054326226E-4,0.000000000E0
1.041935215E0,-3.054326226E-4,-3.054326226E-4,0.000000000E0
1.044173497E0,2.138028387E-3,2.138028387E-3,0.000000000E0
1.046409886E0,-3.054326226E-4,9.162978968E-4,-1.221730490E-3
1.048645542E0,9.162978968E-4,-3.054326226E-4,-1.221730490E-3
1.050881748E0,-1.527163084E-3,1.069014193E-3,0.000000000E0
1.053114902E0,-1.527163084E-3,1.069014193E-3,0.000000000E0
1.055337070E0,-3.054326226E-4,2.138028387E-3,0.000000000E0
1.057580906E0,-1.527163084E-3,-1.527163113E-4,2.443460980E-3
1.059829258E0,-2.748893574E-3,2.290744567E-3,0.000000000E0
1.062070103E0,-1.527163084E-3,1.069014193E-3,2.443460980E-3
1.064306798E0,2.138028387E-3,-1.527163084E-3,0.000000000E0
1.066539219E0,-2.748893574E-3,-1.527163113E-4,-1.221730490E-3
1.068776036E0,-2.748893574E-3,-1.527163113E-4,0.000000000E0
1.071012303E0,9.162978968E-4,-3.054326226E-4,0.000000000E0
1.073249485E0,-3.054326226E-4,-3.054326226E-4,1.221730490E-3
1.075483677E0,-3.054326226E-4,-3.054326226E-4,0.000000000E0
1.077712620E0,-3.054326226E-4,-3.054326226E-4,0.000000000E0
1.079959934E0,9.162978968E-4,9.162978968E-4,0.000000000E0
1.082197422E0,2.138028387E-3,-3.054326226E-4,0.000000000E0
1.084435642E0,-1.527163084E-3,-1.374446787E-3,0.000000000E0
1.086669834E0,-3.970623948E-3,2.290744567E-3,0.000000000E0
1.088906102E0,-1.527163084E-3,3.359758761E-3,1.221730490E-3
1.091142979E0,-1.527163084E-3,1.069014193E-3,0.000000000E0
1.093379795E0,-1.527163084E-3,1.069014193E-3,-1.221730490E-3
1.095613682E0,2.138028387E-3,-3.054326226E-4,-1.221730490E-3
1.097841831E0,9.162978968E-4,4.581489135E-3,-1.221730490E-3
1.100091282E0,9.162978968E-4,-3.054326226E-4,-1.221730490E-3
1.102326817E0,-3.054326226E-4,-1.527163084E-3,0.000000000E0
1.104566624E0,9.162978968E-4,-3.054326226E-4,0.000000000E0
1.106798924E0,9.162978968E-4,9.162978968E-4,0.000000000E0
1.109028232E0,-3.054326226E-4,-1.527163084E-3,1.221730490E-3
1.111270725E0,-3.054326226E-4,-3.054326226E-4,0.000000000E0
1.113510167E0,9.162978968E-4,-3.054326226E-4,-1.221730490E-3
1.115749302E0,-1.527163084E-3,-1.527163113E-4,-1.221730490E-3
1.117985752E0,-3.054326226E-4,-1.527163084E-3,1.221730490E-3
1.120220371E0,2.138028387E-3,-3.054326226E-4,0.000000000E0
1.122457188E0,-3.054326226E-4,9.162978968E-4,1.221730490E-3
1.124693455E0,-3.054326226E-4,-1.527163084E-3,0.000000000E0
1.126930638E0,-1.679879380E-3,-1.374446787E-3,1.221730490E-3
1.129167393E0,-3.054326226E-4,-1.527163084E-3,-1.221730490E-3
1.131404026E0,4.581489135E-3,2.138028387E-3,-2.443460980E-3
1.133641087E0,9.162978968E-4,9.162978968E-4,1.221730490E-3
1.135878575E0,9.162978968E-4,-1.527163084E-3,1.221730490E-3
1.138114231E0,9.162978968E-4,-1.527163084E-3,-1.221730490E-3
1.140350987E0,-3.054326226E-4,2.138028387E-3,0.000000000E0
1.142587559E0,7.635815418E-4,-3.970623948E-3,0.000000000E0
1.144812352E0,-3.054326226E-4,9.162978968E-4,-1.221730490E-3
1.147049229E0,-3.054326226E-4,2.138028387E-3,0.000000000E0
1.149285984E0,9.162978968E-4,2.138028387E-3,1.221730490E-3
1.151522923E0,-3.054326226E-4,9.162978968E-4,-1.221730490E-3
1.153760716E0,-2.748893574E-3,-1.527163113E-4,-1.221730490E-3
1.155996311E0,-1.679879380E-3,-3.817907767E-3,0.000000000E0
1.158233372E0,7.635815418E-4,-6.261368748E-3,0.000000000E0
1.160470311E0,-3.054326226E-4,9.162978968E-4,1.221730490E-3
1.162706150E0,-1.527163084E-3,1.069014193E-3,-1.221730490E-3
1.164945714E0,3.359758761E-3,-3.054326226E-4,-1.221730490E-3
1.167194309E0,-4.581489484E-4,-2.596177394E-3,-1.221730490E-3
1.169431614E0,2.138028387E-3,9.162978968E-4,-1.221730490E-3
1.171668980E0,2.138028387E-3,-2.748893574E-3,-1.221730490E-3
1.173900974E0,2.138028387E-3,2.138028387E-3,-1.221730490E-3
1.176135471E0,9.162978968E-4,3.359758761E-3,0.000000000E0
1.178376194E0,9.162978968E-4,3.359758761E-3,-2.443460980E-3
1.180611973E0,-3.054326226E-4,-3.054326226E-4,0.000000000E0
1.182849277E0,-1.527163084E-3,-1.527163113E-4,1.221730490E-3
1.185084202E0,7.635815418E-4,-2.748893574E-3,1.221730490E-3
1.187320713E0,-3.054326226E-4,-3.054326226E-4,-1.221730490E-3
1.189559727E0,9.162978968E-4,-1.527163084E-3,-1.221730490E-3
1.191795384E0,-3.054326226E-4,-3.054326226E-4,-1.221730490E-3
1.194032322E0,-3.054326226E-4,2.138028387E-3,-1.221730490E-3
1.196268711E0,9.162978968E-4,9.162978968E-4,-1.221730490E-3
1.198505589E0,-4.581489484E-4,-2.596177394E-3,-1.221730490E-3
1.200742344E0,9.162978968E-4,2.138028387E-3,-1.221730490E-3
1.202975559E0,-3.054326226E-4,2.138028387E-3,-1.221730490E-3
1.205200718E0,9.162978968E-4,-1.527163084E-3,2.443460980E-3
1.207442051E0,9.162978968E-4,9.162978968E-4,2.443460980E-3
1.209689182E0,3.359758761E-3,9.162978968E-4,1.221730490E-3
1.211928807E0,9.162978968E-4,2.138028387E-3,0.000000000E0
1.214165196E0,-3.054326226E-4,-3.054326226E-4,0.000000000E0
1.216399571E0,9.162978968E-4,-1.527163084E-3,-1.221730490E-3
1.218635960E0,-2.901609987E-3,-1.374446787E-3,0.000000000E0
1.220872776E0,-1.527163084E-3,1.069014193E-3,1.221730490E-3
1.223109715E0,9.162978968E-4,-3.054326226E-4,0.000000000E0
1.225347141E0,9.162978968E-4,-1.527163084E-3,-1.221730490E-3
1.227582920E0,-3.054326226E-4,-3.054326226E-4,-1.221730490E-3
1.229819493E0,2.138028387E-3,2.138028387E-3,-1.221730490E-3
1.232056065E0,9.162978968E-4,9.162978968E-4,-1.221730490E-3
1.234292881E0,9.162978968E-4,2.138028387E-3,1.221730490E-3
1.236526829E0,9.162978968E-4,9.162978968E-4,-2.443460980E-3
1.238751865E0,-3.054326226E-4,9.162978968E-4,1.221730490E-3
1.240988744E0,-1.679879380E-3,-2.596177394E-3,0.000000000E0
1.243229222E0,9.162978968E-4,-3.054326226E-4,1.221730490E-3
1.245479649E0,-3.054326226E-4,9.162978968E-4,0.000000000E0
1.247716526E0,-1.527163084E-3,-1.374446787E-3,-1.221730490E-3
1.249953769E0,-3.054326226E-4,9.162978968E-4,-1.221730490E-3
1.252186680E0,9.162978968E-4,9.162978968E-4,0.000000000E0
1.254423435E0,-1.527163084E-3,-1.527163113E-4,1.221730490E-3
1.256659520E0,-3.054326226E-4,-3.054326226E-4,-1.221730490E-3
1.258896885E0,-1.527163084E-3,1.069014193E-3,2.443460980E-3
1.261134434E0,-3.054326226E-4,9.162978968E-4,1.221730490E-3
1.263370335E0,9.162978968E-4,3.359758761E-3,-1.221730490E-3
1.265606907E0,9.162978968E-4,9.162978968E-4,0.000000000E0
1.267843418E0,-1.679879380E-3,-1.374446787E-3,2.443460980E-3
1.270080235E0,-1.527163084E-3,1.069014193E-3,1.221730490E-3
1.272317051E0,-3.054326226E-4,2.138028387E-3,0.000000000E0
1.274553623E0,-3.054326226E-4,2.138028387E-3,0.000000000E0
1.276790806E0,-3.054326226E-4,-3.054326226E-4,0.000000000E0
1.279028538E0,-4.581489484E-4,-3.817907767E-3,1.221730490E-3
1.281264134E0,-3.054326226E-4,-1.527163084E-3,0.000000000E0
1.283500706E0,-3.054326226E-4,-3.054326226E-4,1.221730490E-3
1.285735691E0,-1.527163084E-3,-1.527163113E-4,0.000000000E0
1.287968113E0,-1.527163084E-3,-1.527163113E-4,0.000000000E0
1.290210667E0,-1.679879380E-3,-3.817907767E-3,1.221730490E-3
1.292447666E0,-3.054326226E-4,9.162978968E-4,-1.221730490E-3
1.294686009E0,9.162978968E-4,-1.527163084E-3,0.000000000E0
1.296922093E0,-3.054326226E-4,-3.054326226E-4,2.443460980E-3
1.299157627E0,2.138028387E-3,-3.054326226E-4,1.221730490E-3
1.301394505E0,9.162978968E-4,-1.527163084E-3,0.000000000E0
1.303630955E0,-3.054326226E-4,-3.054326226E-4,0.000000000E0
1.305867649E0,2.138028387E-3,-1.527163084E-3,1.221730490E-3
1.308104649E0,-1.527163084E-3,1.069014193E-3,0.000000000E0
1.310341221E0,-1.527163084E-3,1.069014193E-3,0.000000000E0
1.312578403E0,-1.527163084E-3,-1.374446787E-3,0.000000000E0
1.314815830E0,-3.054326226E-4,-1.527163084E-3,1.221730490E-3
1.317051426E0,9.162978968E-4,-3.054326226E-4,0.000000000E0
1.319288303E0,9.162978968E-4,-1.527163084E-3,0.000000000E0
1.321525792E0,-3.054326226E-4,9.162978968E-4,-1.221730490E-3
1.323758701E0,3.359758761E-3,-3.054326226E-4,0.000000000E0
1.325986485E0,2.138028387E-3,-1.527163084E-3,-1.221730490E-3
1.328234471E0,9.162978968E-4,-3.054326226E-4,0.000000000E0
1.330471836E0,2.138028387E-3,9.162978968E-4,1.221730490E-3
1.332712376E0,3.359758761E-3,-3.054326226E-4,-1.221730490E-3
1.334944798E0,2.138028387E-3,-2.748893574E-3,0.000000000E0
1.337179905E0,2.138028387E-3,2.138028387E-3,0.000000000E0
1.339418370E0,9.162978968E-4,3.359758761E-3,1.221730490E-3
1.341655186E0,-3.054326226E-4,3.359758761E-3,-1.221730490E-3
1.343892490E0,9.162978968E-4,2.138028387E-3,0.000000000E0
1.346128575E0,-3.054326226E-4,9.162978968E-4,1.221730490E-3
1.348365757E0,-3.054326226E-4,9.162978968E-4,1.221730490E-3
1.350603428E0,9.162978968E-4,-1.527163084E-3,0.000000000E0
1.352835789E0,7.635815418E-4,-2.748893574E-3,0.000000000E0
1.355060276E0,-3.054326226E-4,-1.527163084E-3,0.000000000E0
1.357299473E0,-3.054326226E-4,-3.054326226E-4,2.443460980E-3
1.359549229E0,-2.901609987E-3,-2.596177394E-3,0.000000000E0
1.361788548E0,-1.527163084E-3,-1.527163113E-4,-1.221730490E-3
1.364025303E0,9.162978968E-4,9.162978968E-4,1.221730490E-3
1.366259434E0,9.162978968E-4,9.162978968E-4,1.221730490E-3
1.368494053E0,-3.054326226E-4,2.138028387E-3,0.000000000E0
1.370720677E0,9.162978968E-4,2.138028387E-3,0.000000000E0
1.372969151E0,-3.054326226E-4,2.138028387E-3,0.000000000E0
1.375201145E0,-3.054326226E-4,9.162978968E-4,0.000000000E0
1.377427464E0,-3.054326226E-4,2.138028387E-3,-1.221730490E-3
1.379679356E0,-3.054326226E-4,-3.054326226E-4,-2.443460980E-3
1.381915928E0,-3.054326226E-4,-3.054326226E-4,-1.221730490E-3
1.384157628E0,3.359758761E-3,-3.054326226E-4,1.221730490E-3
1.386390843E0,9.162978968E-4,-3.054326226E-4,-1.221730490E-3
1.388623447E0,-3.054326226E-4,-3.054326226E-4,1.221730490E-3
1.390851292E0,-3.054326226E-4,9.162978968E-4,-1.221730490E-3
1.393100438E0,9.162978968E-4,9.162978968E-4,-1.221730490E-3
1.395335728E0,2.138028387E-3,9.162978968E-4,0.000000000E0
1.397573704E0,-3.054326226E-4,-3.054326226E-4,0.000000000E0
1.399809483E0,-2.901609987E-3,-2.596177394E-3,1.221730490E-3
1.402046787E0,2.138028387E-3,-3.054326226E-4,2.443460980E-3
1.404284702E0,1.985311974E-3,-2.748893574E-3,2.443460980E-3
1.406516087E0,2.138028387E-3,-3.054326226E-4,0.000000000E0
1.408741123E0,2.138028387E-3,-3.054326226E-4,0.000000000E0
1.410993077E0,-3.054326226E-4,2.138028387E-3,-1.221730490E-3
1.413229954E0,-3.054326226E-4,-3.054326226E-4,-1.221730490E-3
1.415467869E0,9.162978968E-4,3.359758761E-3,0.000000000E0
1.417691624E0,-3.054326226E-4,2.138028387E-3,0.000000000E0
1.419940647E0,-1.527163084E-3,3.359758761E-3,1.221730490E-3
1.422177891E0,2.138028387E-3,-1.527163084E-3,1.221730490E-3
1.424416722E0,9.162978968E-4,-3.054326226E-4,-1.221730490E-3
1.426650303E0,-3.054326226E-4,-3.054326226E-4,-1.221730490E-3
1.428886876E0,-3.054326226E-4,-1.527163084E-3,1.221730490E-3
1.431123753E0,-1.679879380E-3,-2.596177394E-3,0.000000000E0
1.433360752E0,-3.054326226E-4,-3.054326226E-4,0.000000000E0
1.435597141E0,-4.581489484E-4,-5.039638374E-3,-1.221730490E-3
1.437834446E0,-1.679879380E-3,-3.817907767E-3,-1.221730490E-3
1.440071690E0,-3.054326226E-4,9.162978968E-4,1.221730490E-3
1.442307591E0,-1.527163084E-3,1.069014193E-3,0.000000000E0
1.444544041E0,9.162978968E-4,-3.054326226E-4,0.000000000E0
1.446780430E0,9.162978968E-4,-1.527163084E-3,0.000000000E0
1.449017430E0,3.359758761E-3,-3.054326226E-4,-1.221730490E-3
1.451254063E0,9.162978968E-4,-3.054326226E-4,-1.221730490E-3
1.453490940E0,-3.054326226E-4,9.162978968E-4,-1.221730490E-3
1.455728001E0,2.138028387E-3,-3.054326226E-4,0.000000000E0
1.457965550E0,-3.054326226E-4,9.162978968E-4,1.221730490E-3
1.460201023E0,-2.748893574E-3,-1.527163113E-4,-1.221730490E-3
1.462437656E0,-3.054326226E-4,-1.527163084E-3,0.000000000E0
1.464675206E0,-1.527163084E-3,-1.527163113E-4,1.221730490E-3
1.466911289E0,7.635815418E-4,-2.748893574E-3,0.000000000E0
1.469147923E0,-2.748893574E-3,-1.527163113E-4,-1.221730490E-3
1.471384251E0,-1.527163084E-3,3.359758761E-3,-1.221730490E-3
1.473621739E0,-3.054326226E-4,2.138028387E-3,-1.221730490E-3
1.475856113E0,-1.527163084E-3,1.069014193E-3,-1.221730490E-3
1.478082981E0,-1.527163084E-3,-1.527163113E-4,-1.221730490E-3
1.480331455E0,9.162978968E-4,-3.054326226E-4,-1.221730490E-3
1.482568028E0,9.162978968E-4,9.162978968E-4,0.000000000E0
1.484807835E0,9.162978968E-4,-2.748893574E-3,-1.221730490E-3
1.487041722E0,-3.054326226E-4,9.162978968E-4,0.000000000E0
1.489278477E0,-3.054326226E-4,3.359758761E-3,-1.221730490E-3
1.491515354E0,-1.527163084E-3,1.069014193E-3,-2.443460980E-3
1.493752842E0,-3.054326226E-4,-3.054326226E-4,-1.221730490E-3
1.495988377E0,-3.054326226E-4,-1.527163084E-3,1.221730490E-3
1.498225071E0,-3.054326226E-4,-3.054326226E-4,0.000000000E0
1.500461888E0,1.985311974E-3,-3.970623948E-3,-1.221730490E-3
1.502696018E0,3.359758761E-3,-3.054326226E-4,0.000000000E0
1.504923802E0,-3.054326226E-4,9.162978968E-4,1.221730490E-3
1.507172032E0,-3.054326226E-4,9.162978968E-4,2.443460980E-3
1.509409031E0,-3.054326226E-4,3.359758761E-3,0.000000000E0
1.511649327E0,-3.054326226E-4,9.162978968E-4,0.000000000E0
1.513882237E0,-1.527163084E-3,1.069014193E-3,2.443460980E-3
1.516118809E0,9.162978968E-4,2.138028387E-3,0.000000000E0
1.518355381E0,2.138028387E-3,2.138028387E-3,-1.221730490E-3
1.520592259E0,-3.054326226E-4,-3.054326226E-4,-1.221730490E-3
1.522829258E0,-1.527163084E-3,1.069014193E-3,1.221730490E-3
1.525065037E0,-3.054326226E-4,9.162978968E-4,0.000000000E0
1.527300571E0,2.138028387E-3,3.359758761E-3,1.221730490E-3
1.529540379E0,2.138028387E-3,2.138028387E-3,0.000000000E0
1.531775852E0,9.162978968E-4,-2.748893574E-3,-1.221730490E-3
1.534013463E0,2.138028387E-3,9.162978968E-4,2.443460980E-3
1.536250096E0,3.359758761E-3,2.138028387E-3,1.221730490E-3
1.538485935E0,-3.054326226E-4,3.359758761E-3,0.000000000E0
1.540718419E0,-3.054326226E-4,9.162978968E-4,1.221730490E-3
1.542943516E0,-2.901609987E-3,-1.374446787E-3,1.221730490E-3
1.545193700E0,-3.054326226E-4,2.138028387E-3,0.000000000E0
1.547422886E0,9.162978968E-4,2.138028387E-3,1.221730490E-3
1.549673496E0,2.138028387E-3,9.162978968E-4,1.221730490E-3
1.551906162E0,5.803219974E-3,2.138028387E-3,0.000000000E0
1.554145481E0,9.162978968E-4,3.359758761E-3,1.221730490E-3
1.556379551E0,-3.054326226E-4,-3.054326226E-4,-1.221730490E-3
1.558616368E0,-1.527163084E-3,1.069014193E-3,-1.221730490E-3
1.560853001E0,9.162978968E-4,2.138028387E-3,1.221730490E-3
1.563090366E0,-1.527163084E-3,1.069014193E-3,1.221730490E-3
1.565327732E0,2.138028387E-3,3.359758761E-3,2.443460980E-3
1.567564183E0,9.162978968E-4,2.138028387E-3,0.000000000E0
1.569802708E0,-2.748893574E-3,2.290744567E-3,1.221730490E-3
1.572027928E0,9.162978968E-4,-3.054326226E-4,0.000000000E0
1.574273472E0,2.138028387E-3,-3.054326226E-4,0.000000000E0
1.576509006E0,-1.527163084E-3,1.069014193E-3,0.000000000E0
1.578749180E0,9.162978968E-4,-3.054326226E-4,0.000000000E0
1.580984104E0,-1.527163084E-3,1.069014193E-3,0.000000000E0
1.583221409E0,-3.054326226E-4,4.581489135E-3,0.000000000E0
1.585457188E0,-3.054326226E-4,9.162978968E-4,1.221730490E-3
1.587693760E0,-3.054326226E-4,-3.054326226E-4,1.221730490E-3
1.589930333E0,9.162978968E-4,9.162978968E-4,0.000000000E0
1.592167149E0,-1.527163084E-3,1.069014193E-3,0.000000000E0
1.594403965E0,-1.527163084E-3,2.138028387E-3,0.000000000E0
1.596640537E0,-3.054326226E-4,-3.054326226E-4,1.221730490E-3
1.598877659E0,-3.054326226E-4,9.162978968E-4,0.000000000E0
1.601115208E0,9.162978968E-4,9.162978968E-4,-1.221730490E-3
1.603350987E0,-1.527163084E-3,1.069014193E-3,0.000000000E0
1.605587193E0,-3.054326226E-4,2.138028387E-3,0.000000000E0
1.607823338E0,2.138028387E-3,-3.054326226E-4,0.000000000E0
1.610060642E0,9.162978968E-4,-1.527163084E-3,-1.221730490E-3
1.612297520E0,-1.527163084E-3,1.069014193E-3,-2.443460980E-3
1.614534275E0,-1.527163084E-3,1.069014193E-3,-1.221730490E-3
1.616771458E0,9.162978968E-4,-1.527163084E-3,0.000000000E0
1.619008763E0,9.162978968E-4,-1.527163084E-3,1.221730490E-3
1.621244602E0,-3.054326226E-4,-1.527163084E-3,0.000000000E0
1.623481114E0,9.162978968E-4,2.138028387E-3,2.443460980E-3
1.625717686E0,9.162978968E-4,-3.054326226E-4,2.443460980E-3
1.627954502E0,9.162978968E-4,2.138028387E-3,1.221730490E-3
1.630191319E0,-3.054326226E-4,9.162978968E-4,0.000000000E0
1.632427952E0,9.162978968E-4,3.359758761E-3,0.000000000E0
1.634662877E0,2.138028387E-3,-3.054326226E-4,0.000000000E0
1.636889988E0,-3.054326226E-4,9.162978968E-4,1.221730490E-3
1.639123264E0,2.138028387E-3,2.138028387E-3,1.221730490E-3
1.641360264E0,9.162978968E-4,9.162978968E-4,0.000000000E0
1.643602207E0,3.359758761E-3,9.162978968E-4,-1.221730490E-3
1.645848606E0,9.162978968E-4,2.138028387E-3,1.221730490E-3
1.648076146E0,-1.527163084E-3,-1.527163113E-4,0.000000000E0
1.650324803E0,-1.527163084E-3,2.138028387E-3,0.000000000E0
1.652558506E0,-3.054326226E-4,2.138028387E-3,1.221730490E-3
1.654799290E0,9.162978968E-4,2.138028387E-3,-1.221730490E-3
1.657031895E0,-1.527163084E-3,-1.374446787E-3,0.000000000E0
1.659268772E0,9.162978968E-4,9.162978968E-4,1.221730490E-3
1.661504979E0,-1.679879380E-3,-1.374446787E-3,1.221730490E-3
1.663741917E0,-3.054326226E-4,-3.054326226E-4,-1.221730490E-3
1.665978916E0,-3.054326226E-4,4.581489135E-3,1.221730490E-3
1.668215550E0,2.138028387E-3,-1.527163084E-3,1.221730490E-3
1.670452671E0,-3.054326226E-4,-3.054326226E-4,-1.221730490E-3
1.672686985E0,-2.748893574E-3,2.290744567E-3,-2.443460980E-3
1.674913243E0,9.162978968E-4,-3.054326226E-4,0.000000000E0
1.677162510E0,-3.054326226E-4,-3.054326226E-4,1.221730490E-3
1.679399815E0,-3.054326226E-4,-3.054326226E-4,0.000000000E0
1.681639012E0,9.162978968E-4,9.162978968E-4,2.443460980E-3
1.683872471E0,9.162978968E-4,-3.054326226E-4,1.221730490E-3
1.686108799E0,2.138028387E-3,-3.054326226E-4,0.000000000E0
1.688346104E0,-3.054326226E-4,-1.527163084E-3,0.000000000E0
1.690583653E0,7.635815418E-4,-3.970623948E-3,0.000000000E0
1.692819248E0,-1.527163084E-3,1.069014193E-3,-3.665191587E-3
1.695053379E0,-3.054326226E-4,9.162978968E-4,-2.443460980E-3
1.697282627E0,-3.054326226E-4,9.162978968E-4,-1.221730490E-3
1.699529514E0,-3.054326226E-4,-3.054326226E-4,0.000000000E0
1.701763035E0,2.138028387E-3,-3.054326226E-4,2.443460980E-3
1.703992100E0,2.138028387E-3,9.162978968E-4,0.000000000E0
1.706239719E0,-1.527163084E-3,-1.527163113E-4,1.221730490E-3
1.708474461E0,9.162978968E-4,2.138028387E-3,2.443460980E-3
1.710704380E0,-1.527163084E-3,2.138028387E-3,-1.221730490E-3
1.712949681E0,9.162978968E-4,2.138028387E-3,1.221730490E-3
1.715181919E0,-2.748893574E-3,2.290744567E-3,0.000000000E0
1.717409153E0,-1.527163084E-3,1.069014193E-3,0.000000000E0
1.719659886E0,-1.527163084E-3,-1.527163113E-4,0.000000000E0
1.721896702E0,-3.054326226E-4,9.162978968E-4,0.000000000E0
1.724137974E0,2.138028387E-3,9.162978968E-4,-1.221730490E-3
1.726371067E0,9.162978968E-4,-3.054326226E-4,-1.221730490E-3
1.728603794E0,-2.901609987E-3,-1.374446787E-3,1.221730490E-3
1.730831150E0,-3.054326226E-4,9.162978968E-4,0.000000000E0
1.733079686E0,9.162978968E-4,9.162978968E-4,-1.221730490E-3
1.735313511E0,9.162978968E-4,-1.527163084E-3,1.221730490E-3
1.737541599E0,-1.527163084E-3,-1.527163113E-4,0.000000000E0
1.739775730E0,-4.581489484E-4,-2.596177394E-3,0.000000000E0
1.742015232E0,9.162978968E-4,-1.527163084E-3,-2.443460980E-3
1.744268162E0,-1.527163084E-3,1.069014193E-3,0.000000000E0
1.746503575E0,9.162978968E-4,-3.054326226E-4,2.443460980E-3
1.748740513E0,-3.054326226E-4,9.162978968E-4,1.221730490E-3
1.750974461E0,-3.054326226E-4,9.162978968E-4,0.000000000E0
1.753210606E0,-3.054326226E-4,2.138028387E-3,2.443460980E-3
1.755444431E0,-3.054326226E-4,2.138028387E-3,-1.221730490E-3
1.757671727E0,-3.054326226E-4,2.138028387E-3,0.000000000E0
1.759920628E0,9.162978968E-4,9.162978968E-4,-1.221730490E-3
1.762158604E0,9.162978968E-4,-3.054326226E-4,-1.221730490E-3
1.764397191E0,9.162978968E-4,-3.054326226E-4,2.443460980E-3
1.766630955E0,-3.054326226E-4,2.138028387E-3,-1.221730490E-3
1.768867527E0,-1.679879380E-3,-2.596177394E-3,0.000000000E0
1.771104222E0,-3.054326226E-4,2.138028387E-3,0.000000000E0
1.773341221E0,-3.054326226E-4,9.162978968E-4,1.221730490E-3
1.775574558E0,-3.054326226E-4,-3.054326226E-4,1.221730490E-3
1.777802952E0,-2.748893574E-3,-1.527163113E-4,-1.221730490E-3
1.780052159E0,9.162978968E-4,9.162978968E-4,0.000000000E0
1.782287998E0,2.138028387E-3,-3.054326226E-4,1.221730490E-3
1.784523717E0,2.138028387E-3,-1.527163084E-3,1.221730490E-3
1.786746189E0,-3.054326226E-4,-3.054326226E-4,0.000000000E0
1.788995701E0,-1.527163084E-3,1.069014193E-3,1.221730490E-3
1.791234593E0,-3.054326226E-4,-1.527163084E-3,0.000000000E0
1.793474949E0,-1.679879380E-3,-1.374446787E-3,1.221730490E-3
1.795709018E0,-3.054326226E-4,-3.054326226E-4,1.221730490E-3
1.797946018E0,2.138028387E-3,-1.527163084E-3,1.221730490E-3
1.800181553E0,9.162978968E-4,-2.748893574E-3,-1.221730490E-3
1.802418125E0,9.162978968E-4,9.162978968E-4,0.000000000E0
1.804654637E0,-1.527163084E-3,-1.527163113E-4,-2.443460980E-3
1.806891514E0,-2.748893574E-3,-1.374446787E-3,-1.221730490E-3
1.809128330E0,-2.748893574E-3,1.069014193E-3,0.000000000E0
1.811364964E0,-1.527163084E-3,-1.374446787E-3,0.000000000E0
1.813602268E0,-1.527163084E-3,-1.527163113E-4,-1.221730490E-3
1.815836582E0,9.162978968E-4,9.162978968E-4,0.000000000E0
1.818063450E0,9.162978968E-4,3.359758761E-3,0.000000000E0
1.820312168E0,-1.527163084E-3,1.069014193E-3,1.221730490E-3
1.822546543E0,9.162978968E-4,-3.054326226E-4,0.000000000E0
1.824776524E0,2.138028387E-3,-3.054326226E-4,0.000000000E0
1.827021946E0,-4.123340361E-3,-1.374446787E-3,0.000000000E0
1.829258702E0,-1.679879380E-3,-2.596177394E-3,0.000000000E0
1.831498753E0,-1.527163084E-3,-1.374446787E-3,0.000000000E0
1.833730320E0,-4.581489484E-4,-2.596177394E-3,1.221730490E-3
1.835956700E0,-2.748893574E-3,1.069014193E-3,0.000000000E0
1.838205784E0,-2.748893574E-3,2.290744567E-3,1.221730490E-3
1.840442295E0,-2.901609987E-3,-1.374446787E-3,0.000000000E0
1.842682225E0,-3.054326226E-4,-3.054326226E-4,1.221730490E-3
1.844915928E0,2.138028387E-3,9.162978968E-4,1.221730490E-3
1.847152500E0,-1.527163084E-3,-1.374446787E-3,0.000000000E0
1.849389622E0,9.162978968E-4,-3.054326226E-4,0.000000000E0
1.851624058E0,9.162978968E-4,-3.054326226E-4,1.221730490E-3
1.853850498E0,-1.527163084E-3,2.138028387E-3,0.000000000E0
1.856099278E0,2.138028387E-3,-1.527163084E-3,-2.443460980E-3
1.858335911E0,1.985311974E-3,-3.970623948E-3,-1.221730490E-3
1.860576207E0,-3.054326226E-4,-3.054326226E-4,-1.221730490E-3
1.862809483E0,-3.054326226E-4,9.162978968E-4,0.000000000E0
1.865043064E0,9.162978968E-4,9.162978968E-4,-1.221730490E-3
1.867271153E0,-3.054326226E-4,2.138028387E-3,1.221730490E-3
1.869520909E0,2.138028387E-3,2.138028387E-3,1.221730490E-3
1.871756321E0,2.138028387E-3,-3.054326226E-4,0.000000000E0
1.873996129E0,2.138028387E-3,9.162978968E-4,0.000000000E0
1.876229588E0,9.162978968E-4,-1.527163084E-3,0.000000000E0
1.878466526E0,-3.054326226E-4,-3.054326226E-4,0.000000000E0
1.880703282E0,-1.527163084E-3,1.069014193E-3,0.000000000E0
1.882939915E0,-1.527163084E-3,-1.527163113E-4,-1.221730490E-3
1.885174290E0,-3.054326226E-4,-1.527163084E-3,0.000000000E0
1.887402745E0,9.162978968E-4,-1.527163084E-3,2.443460980E-3
1.889647129E0,-3.054326226E-4,-3.054326226E-4,1.221730490E-3
1.891875095E0,-1.527163084E-3,2.138028387E-3,0.000000000E0
1.894127109E0,-3.054326226E-4,2.138028387E-3,1.221730490E-3
1.896360325E0,-3.054326226E-4,2.138028387E-3,3.665191587E-3
1.898600071E0,-3.054326226E-4,9.162978968E-4,2.443460980E-3
1.900833470E0,9.162978968E-4,2.138028387E-3,1.221730490E-3
1.903070713E0,2.138028387E-3,2.138028387E-3,1.221730490E-3
1.905305027E0,9.162978968E-4,-3.054326226E-4,1.221730490E-3
1.907531895E0,9.162978968E-4,9.162978968E-4,0.000000000E0
1.909780430E0,2.138028387E-3,-3.054326226E-4,1.221730490E-3
1.912017063E0,-2.748893574E-3,1.069014193E-3,0.000000000E0
1.914257054E0,9.162978968E-4,-1.527163084E-3,-1.221730490E-3
1.916490635E0,7.635815418E-4,-5.192354787E-3,1.221730490E-3
1.918724277E0,-4.123340361E-3,-1.374446787E-3,1.221730490E-3
1.920952549E0,2.138028387E-3,2.138028387E-3,0.000000000E0
1.923201817E0,-3.054326226E-4,-1.527163084E-3,-1.221730490E-3
1.925437473E0,-3.054326226E-4,-3.054326226E-4,0.000000000E0
1.927677220E0,2.138028387E-3,-1.527163084E-3,0.000000000E0
1.929910801E0,9.162978968E-4,-3.054326226E-4,0.000000000E0
1.932147679E0,-1.527163084E-3,-1.374446787E-3,-1.221730490E-3
1.934384434E0,-1.679879380E-3,-2.596177394E-3,-2.443460980E-3
1.936621006E0,-1.527163084E-3,-1.527163113E-4,0.000000000E0
1.938858067E0,-3.054326226E-4,-1.527163084E-3,1.221730490E-3
1.941095371E0,-1.527163084E-3,3.359758761E-3,1.221730490E-3
1.943331272E0,9.162978968E-4,-1.527163084E-3,0.000000000E0
1.945568028E0,-4.581489484E-4,-2.596177394E-3,0.000000000E0
1.947804356E0,-4.581489484E-4,-2.596177394E-3,-1.221730490E-3
1.950041172E0,2.138028387E-3,-2.748893574E-3,-1.221730490E-3
1.952277989E0,9.162978968E-4,-3.054326226E-4,0.000000000E0
1.954514805E0,-1.527163084E-3,1.069014193E-3,0.000000000E0
1.956752170E0,-3.054326226E-4,-1.527163084E-3,0.000000000E0
1.958988193E0,9.162978968E-4,2.138028387E-3,0.000000000E0
1.961213047E0,9.162978968E-4,2.138028387E-3,-1.221730490E-3
1.963461948E0,-3.054326226E-4,9.162978968E-4,-1.221730490E-3
1.965698949E0,-3.054326226E-4,2.138028387E-3,0.000000000E0
1.967938206E0,9.162978968E-4,-1.527163084E-3,0.000000000E0
1.970171787E0,-1.679879380E-3,-3.817907767E-3,1.221730490E-3
1.972408116E0,-3.054326226E-4,-3.054326226E-4,-1.221730490E-3
1.974645664E0,-3.054326226E-4,-3.054326226E-4,0.000000000E0
1.976883030E0,-3.054326226E-4,-3.054326226E-4,0.000000000E0
1.979118809E0,9.162978968E-4,-3.054326226E-4,-1.221730490E-3
1.981355137E0,-3.054326226E-4,9.162978968E-4,-1.221730490E-3
1.983588109E0,-1.679879380E-3,-3.817907767E-3,0.000000000E0
1.985812412E0,-3.970623948E-3,1.069014193E-3,0.000000000E0
1.988061741E0,9.162978968E-4,9.162978968E-4,3.665191587E-3
1.990302098E0,2.138028387E-3,2.138028387E-3,1.221730490E-3
1.992542881E0,-3.054326226E-4,9.162978968E-4,0.000000000E0
1.994777745E0,-2.748893574E-3,-1.527163113E-4,1.221730490E-3
1.997012425E0,9.162978968E-4,9.162978968E-4,1.221730490E-3
1.999249302E0,-3.054326226E-4,9.162978968E-4,2.443460980E-3
2.001485752E0,-1.679879380E-3,-1.374446787E-3,1.221730490E-3
2.003722569E0,-1.527163084E-3,-1.527163113E-4,1.221730490E-3
2.005959141E0,-3.054326226E-4,-3.054326226E-4,1.221730490E-3
2.008195957E0,-3.054326226E-4,9.162978968E-4,0.000000000E0
2.010433018E0,-1.527163084E-3,-1.527163113E-4,0.000000000E0
2.012670384E0,-1.527163084E-3,-1.527163113E-4,0.000000000E0
2.014906162E0,-1.527163084E-3,1.069014193E-3,0.000000000E0
2.017142735E0,9.162978968E-4,-3.054326226E-4,0.000000000E0
2.019379307E0,9.162978968E-4,-3.054326226E-4,0.000000000E0
2.021612278E0,-3.054326226E-4,-3.054326226E-4,1.221730490E-3
2.023837559E0,9.162978968E-4,-1.527163084E-3,1.221730490E-3
2.026089573E0,-3.054326226E-4,-1.527163084E-3,0.000000000E0
2.028326939E0,-3.054326226E-4,-1.527163084E-3,0.000000000E0
2.030568211E0,-1.679879380E-3,-2.596177394E-3,1.221730490E-3
2.032799717E0,-1.679879380E-3,-3.817907767E-3,0.000000000E0
2.035033847E0,-3.054326226E-4,-3.054326226E-4,-1.221730490E-3
2.037263279E0,-3.054326226E-4,-1.527163084E-3,1.221730490E-3
2.039509983E0,-1.527163084E-3,-1.374446787E-3,0.000000000E0
2.041746800E0,-3.054326226E-4,-1.527163084E-3,-2.443460980E-3
2.043985752E0,-3.054326226E-4,-1.527163084E-3,-1.221730490E-3
2.046220432E0,9.162978968E-4,-1.527163084E-3,0.000000000E0
2.048456394E0,-3.054326226E-4,-1.527163084E-3,0.000000000E0
2.050688450E0,-4.581489484E-4,-2.596177394E-3,0.000000000E0
2.052934239E0,-3.054326226E-4,-3.054326226E-4,-1.221730490E-3
2.055166905E0,9.162978968E-4,-3.054326226E-4,1.221730490E-3
2.057406285E0,-1.527163084E-3,-1.527163113E-4,-1.221730490E-3
2.059639499E0,-4.581489484E-4,-2.596177394E-3,-1.221730490E-3
2.061876866E0,-2.748893574E-3,1.069014193E-3,0.000000000E0
2.064113682E0,-1.527163084E-3,3.359758761E-3,-2.443460980E-3
2.066351475E0,9.162978968E-4,-1.527163084E-3,1.221730490E-3
2.068587803E0,2.138028387E-3,-3.054326226E-4,1.221730490E-3
2.070825657E0,-3.054326226E-4,-3.054326226E-4,0.000000000E0
2.073060520E0,-1.527163084E-3,2.138028387E-3,0.000000000E0
2.075296482E0,-4.581489484E-4,-5.039638374E-3,-1.221730490E-3
2.077529515E0,9.162978968E-4,-3.054326226E-4,-2.443460980E-3
2.079770664E0,-1.679879380E-3,-1.374446787E-3,1.221730490E-3
2.082007664E0,9.162978968E-4,-1.527163084E-3,1.221730490E-3
2.084246129E0,9.162978968E-4,-3.054326226E-4,0.000000000E0
2.086481175E0,9.162978968E-4,-1.527163084E-3,0.000000000E0
2.088717686E0,9.162978968E-4,-2.748893574E-3,-1.221730490E-3
2.090954014E0,-3.054326226E-4,-3.054326226E-4,0.000000000E0
2.093190830E0,2.138028387E-3,-3.054326226E-4,1.221730490E-3
2.095424900E0,9.162978968E-4,4.581489135E-3,0.000000000E0
2.097652561E0,9.162978968E-4,9.162978968E-4,0.000000000E0
2.099901646E0,-3.054326226E-4,3.359758761E-3,1.221730490E-3
2.102139073E0,9.162978968E-4,3.359758761E-3,0.000000000E0
2.104377598E0,9.162978968E-4,9.162978968E-4,0.000000000E0
2.106609470E0,9.162978968E-4,-3.054326226E-4,-1.221730490E-3
2.108841648E0,-2.748893574E-3,-1.374446787E-3,-1.221730490E-3
2.111084629E0,-3.054326226E-4,9.162978968E-4,0.000000000E0
2.113321507E0,-3.054326226E-4,-1.527163084E-3,-1.221730490E-3
2.115556614E0,9.162978968E-4,-1.527163084E-3,0.000000000E0
2.117783421E0,-1.527163084E-3,3.359758761E-3,0.000000000E0
2.120032627E0,-3.054326226E-4,2.138028387E-3,0.000000000E0
2.122268223E0,2.138028387E-3,9.162978968E-4,0.000000000E0
2.124507786E0,9.162978968E-4,-3.054326226E-4,1.221730490E-3
2.126741612E0,2.138028387E-3,9.162978968E-4,0.000000000E0
2.128978428E0,2.138028387E-3,-1.527163084E-3,-1.221730490E-3
2.131215000E0,9.162978968E-4,-1.527163084E-3,1.221730490E-3
2.133451512E0,9.162978968E-4,9.162978968E-4,-2.443460980E-3
2.135688389E0,2.138028387E-3,9.162978968E-4,-1.221730490E-3
2.137922336E0,-1.527163084E-3,1.069014193E-3,0.000000000E0
2.140147434E0,1.985311974E-3,-3.970623948E-3,-2.443460980E-3
2.142386936E0,-3.054326226E-4,-3.054326226E-4,0.000000000E0
2.144635472E0,-2.748893574E-3,-1.527163113E-4,0.000000000E0
2.146875218E0,-1.527163084E-3,-1.374446787E-3,-1.221730490E-3
2.149111973E0,-2.748893574E-3,-1.527163113E-4,0.000000000E0
2.151345432E0,-2.748893574E-3,2.290744567E-3,1.221730490E-3
2.153581761E0,-1.679879380E-3,-2.596177394E-3,2.443460980E-3
2.155813328E0,2.138028387E-3,-3.054326226E-4,-1.221730490E-3
2.158043980E0,9.162978968E-4,-1.527163084E-3,-1.221730490E-3
2.160292698E0,2.138028387E-3,2.138028387E-3,-1.221730490E-3
2.162530124E0,9.162978968E-4,-1.527163084E-3,-2.443460980E-3
2.164768834E0,-2.748893574E-3,-1.527163113E-4,-2.443460980E-3
2.167002842E0,-1.527163084E-3,-1.527163113E-4,2.443460980E-3
2.169239292E0,2.138028387E-3,-1.527163084E-3,0.000000000E0
2.171473118E0,9.162978968E-4,-3.054326226E-4,0.000000000E0
2.173702000E0,-1.679879380E-3,-3.817907767E-3,1.221730490E-3
2.175949314E0,-1.527163084E-3,-1.374446787E-3,0.000000000E0
2.178186314E0,2.138028387E-3,-3.054326226E-4,0.000000000E0
2.180426670E0,-3.054326226E-4,-1.527163084E-3,0.000000000E0
2.182656589E0,-1.527163084E-3,3.359758761E-3,1.221730490E-3
2.184884251E0,-1.527163084E-3,2.138028387E-3,2.443460980E-3
2.187132725E0,-3.054326226E-4,2.138028387E-3,0.000000000E0
2.189370030E0,-3.054326226E-4,9.162978968E-4,-1.221730490E-3
2.191610386E0,-3.054326226E-4,9.162978968E-4,-2.443460980E-3
2.193843174E0,9.162978968E-4,-1.527163084E-3,1.221730490E-3
2.196079746E0,3.359758761E-3,-1.527163084E-3,1.221730490E-3
2.198316319E0,7.635815418E-4,-2.748893574E-3,1.221730490E-3
2.200548679E0,9.162978968E-4,-1.527163084E-3,-1.221730490E-3
2.202772129E0,-1.679879380E-3,-2.596177394E-3,0.000000000E0
2.205026707E0,-2.901609987E-3,-2.596177394E-3,0.000000000E0
2.207264378E0,-3.054326226E-4,9.162978968E-4,1.221730490E-3
2.209505589E0,-3.054326226E-4,-3.054326226E-4,-1.221730490E-3
2.211736729E0,-1.527163084E-3,2.138028387E-3,-1.221730490E-3
2.213973179E0,-1.527163084E-3,-1.527163113E-4,0.000000000E0
2.216210179E0,-2.748893574E-3,3.512475174E-3,-1.221730490E-3
2.218447239E0,-2.748893574E-3,2.290744567E-3,0.000000000E0
2.220683811E0,9.162978968E-4,2.138028387E-3,1.221730490E-3
2.222920323E0,9.162978968E-4,9.162978968E-4,0.000000000E0
2.225154392E0,-3.054326226E-4,9.162978968E-4,-1.221730490E-3
2.227382969E0,-3.054326226E-4,-1.527163084E-3,-1.221730490E-3
2.229630528E0,9.162978968E-4,-1.527163084E-3,1.221730490E-3
2.231867100E0,2.138028387E-3,-1.527163084E-3,1.221730490E-3
2.234106602E0,2.138028387E-3,-3.054326226E-4,-1.221730490E-3
2.236337620E0,2.138028387E-3,-2.748893574E-3,-1.221730490E-3
2.238562961E0,-4.581489484E-4,-2.596177394E-3,0.000000000E0
2.240799412E0,-1.527163084E-3,2.138028387E-3,0.000000000E0
2.243039097E0,9.162978968E-4,9.162978968E-4,-0.000000000E0
2.245289219E0,9.162978968E-4,9.162978968E-4,-0.000000000E0
2.247517491E0,9.162978968E-4,-3.054326226E-4,-0.000000000E0
2.249764195E0,-1.527163084E-3,-1.527163113E-4,1.221730490E-3
2.251998448E0,9.162978968E-4,9.162978968E-4,-1.221730490E-3
2.254236973E0,2.138028387E-3,9.162978968E-4,-0.000000000E0
2.256471104E0,-3.054326226E-4,-3.054326226E-4,-1.221730490E-3
2.258707432E0,9.162978968E-4,9.162978968E-4,1.221730490E-3
2.260944737E0,-1.527163084E-3,2.138028387E-3,-0.000000000E0
2.263182286E0,-2.748893574E-3,1.069014193E-3,-0.000000000E0
2.265417942E0,-3.054326226E-4,-3.054326226E-4,1.221730490E-3
2.267654759E0,-3.054326226E-4,3.359758761E-3,1.221730490E-3
2.269891270E0,9.162978968E-4,9.162978968E-4,-0.000000000E0
2.272128147E0,2.138028387E-3,-3.054326226E-4,-1.221730490E-3
2.274364903E0,-3.054326226E-4,2.138028387E-3,-0.000000000E0
2.276601475E0,-2.748893574E-3,1.069014193E-3,1.221730490E-3
2.278838596E0,-1.527163084E-3,2.138028387E-3,-0.000000000E0
2.281076084E0,-1.527163084E-3,1.069014193E-3,-1.221730490E-3
2.283308933E0,-3.054326226E-4,-3.054326226E-4,1.221730490E-3
2.285532933E0,-3.054326226E-4,-3.054326226E-4,-0.000000000E0
2.287767430E0,-3.054326226E-4,-1.527163084E-3,-1.221730490E-3
2.290021580E0,-4.581489484E-4,-2.596177394E-3,-1.221730490E-3
2.292261021E0,-3.054326226E-4,4.581489135E-3,-1.221730490E-3
2.294499668E0,3.359758761E-3,2.138028387E-3,1.221730490E-3
2.296732456E0,-3.054326226E-4,-1.527163084E-3,-0.000000000E0
2.298970005E0,7.635815418E-4,-2.748893574E-3,-0.000000000E0
2.301205479E0,2.138028387E-3,-2.748893574E-3,-1.221730490E-3
2.303442051E0,-3.054326226E-4,9.162978968E-4,-1.221730490E-3
2.305678563E0,-3.054326226E-4,4.581489135E-3,-0.000000000E0
2.307915501E0,-3.054326226E-4,9.162978968E-4,-0.000000000E0
2.310152500E0,-3.054326226E-4,-3.054326226E-4,2.443460980E-3
2.312388828E0,-4.581489484E-4,-2.596177394E-3,-0.000000000E0
2.314626011E0,7.635815418E-4,-3.970623948E-3,-0.000000000E0
2.316863621E0,9.162978968E-4,-1.527163084E-3,-0.000000000E0
2.319099095E0,-4.581489484E-4,-1.527163084E-3,2.443460980E-3
2.321336094E0,-3.054326226E-4,9.162978968E-4,1.221730490E-3
2.323573094E0,9.162978968E-4,9.162978968E-4,-0.000000000E0
2.325809300E0,3.359758761E-3,-3.054326226E-4,-0.000000000E0
2.328045994E0,3.359758761E-3,2.138028387E-3,1.221730490E-3
2.330282139E0,-3.054326226E-4,-3.054326226E-4,2.443460980E-3
2.332519444E0,-3.054326226E-4,-3.054326226E-4,-0.000000000E0
2.334756993E0,-1.527163084E-3,-1.527163113E-4,-1.221730490E-3
2.336989658E0,3.359758761E-3,9.162978968E-4,-0.000000000E0
2.339216099E0,9.162978968E-4,9.162978968E-4,-0.000000000E0
2.341464268E0,9.162978968E-4,9.162978968E-4,-0.000000000E0
2.343702854E0,-4.581489484E-4,-1.527163084E-3,2.443460980E-3
2.345943150E0,-3.054326226E-4,-3.054326226E-4,2.443460980E-3
2.348176914E0,2.138028387E-3,-3.054326226E-4,1.221730490E-3
2.350413548E0,2.138028387E-3,9.162978968E-4,-0.000000000E0
2.352650791E0,9.162978968E-4,-3.054326226E-4,-0.000000000E0
2.354886570E0,9.162978968E-4,-3.054326226E-4,-0.000000000E0
2.357122898E0,1.985311974E-3,-3.970623948E-3,-0.000000000E0
2.359359593E0,-1.679879380E-3,-3.817907767E-3,-1.221730490E-3
2.361596836E0,-1.527163084E-3,-1.374446787E-3,-0.000000000E0
2.363833409E0,2.138028387E-3,-3.054326226E-4,1.221730490E-3
2.366067906E0,2.138028387E-3,9.162978968E-4,-0.000000000E0
2.368299412E0,2.138028387E-3,-3.054326226E-4,-0.000000000E0
2.370544346E0,-1.527163084E-3,1.069014193E-3,-0.000000000E0
2.372780247E0,9.162978968E-4,-1.527163084E-3,-0.000000000E0
2.375021152E0,3.359758761E-3,2.138028387E-3,-1.221730490E-3
2.377263401E0,4.581489135E-3,-3.054326226E-4,-0.000000000E0
2.379490391E0,3.359758761E-3,-3.054326226E-4,-0.000000000E0
2.381726963E0,2.138028387E-3,9.162978968E-4,-2.443460980E-3
2.383961095E0,3.359758761E-3,-3.054326226E-4,-1.221730490E-3
2.386200901E0,-1.527163084E-3,2.138028387E-3,-0.000000000E0
2.388434605E0,2.138028387E-3,9.162978968E-4,-0.000000000E0
2.390658665E0,-3.054326226E-4,-3.054326226E-4,1.221730490E-3
2.392910862E0,7.635815418E-4,-2.748893574E-3,1.221730490E-3
2.395145298E0,2.138028387E-3,-2.748893574E-3,-0.000000000E0
2.397375828E0,-3.054326226E-4,9.162978968E-4,-0.000000000E0
2.399620762E0,9.162978968E-4,-3.054326226E-4,-0.000000000E0
2.401857090E0,-3.054326226E-4,-3.054326226E-4,-1.221730490E-3
2.404097691E0,-3.054326226E-4,9.162978968E-4,1.221730490E-3
2.406331944E0,9.162978968E-4,-1.527163084E-3,-0.000000000E0
2.408567600E0,9.162978968E-4,-1.527163084E-3,-2.443460980E-3
2.410804356E0,9.162978968E-4,9.162978968E-4,1.221730490E-3
2.413040928E0,-2.901609987E-3,-1.374446787E-3,-0.000000000E0
2.415277074E0,-3.970623948E-3,-1.527163113E-4,-0.000000000E0
2.417511631E0,-3.054326226E-4,-3.054326226E-4,-1.221730490E-3
2.419751072E0,9.162978968E-4,3.359758761E-3,1.221730490E-3
2.421985080E0,9.162978968E-4,2.138028387E-3,1.221730490E-3
2.424214756E0,-4.581489484E-4,-2.596177394E-3,2.443460980E-3
2.426461399E0,2.138028387E-3,-1.527163084E-3,-1.221730490E-3
2.428698216E0,9.162978968E-4,-1.527163084E-3,-0.000000000E0
2.430937412E0,9.162978968E-4,-1.527163084E-3,-2.443460980E-3
2.433171543E0,2.138028387E-3,-3.054326226E-4,-0.000000000E0
2.435405125E0,-1.679879380E-3,-2.596177394E-3,-0.000000000E0
2.437632969E0,9.162978968E-4,-1.527163084E-3,1.221730490E-3
2.439881748E0,-3.054326226E-4,9.162978968E-4,-0.000000000E0
2.442119297E0,9.162978968E-4,-1.527163084E-3,-0.000000000E0
2.444357884E0,-3.054326226E-4,9.162978968E-4,-1.221730490E-3
2.446591709E0,-3.054326226E-4,9.162978968E-4,-1.221730490E-3
2.448825047E0,-1.527163084E-3,1.069014193E-3,-1.221730490E-3
2.451053135E0,9.162978968E-4,2.138028387E-3,-0.000000000E0
2.453301670E0,-3.054326226E-4,9.162978968E-4,-1.221730490E-3
2.455535557E0,9.162978968E-4,-2.748893574E-3,-2.443460980E-3
2.457766636E0,-4.581489484E-4,-2.596177394E-3,-0.000000000E0
2.460013157E0,9.162978968E-4,-3.054326226E-4,-0.000000000E0
2.462248692E0,2.138028387E-3,2.138028387E-3,-0.000000000E0
2.464488560E0,-3.054326226E-4,-3.054326226E-4,1.221730490E-3
2.466723057E0,9.162978968E-4,9.162978968E-4,1.221730490E-3
2.468958958E0,-1.527163084E-3,3.359758761E-3,-0.000000000E0
2.471195774E0,2.138028387E-3,-3.054326226E-4,1.221730490E-3
2.473432042E0,9.162978968E-4,-3.054326226E-4,-0.000000000E0
2.475669407E0,3.359758761E-3,9.162978968E-4,-1.221730490E-3
2.477906895E0,2.138028387E-3,-3.054326226E-4,-0.000000000E0
2.480142491E0,-3.054326226E-4,-3.054326226E-4,-0.000000000E0
2.482379063E0,9.162978968E-4,9.162978968E-4,-0.000000000E0
2.484615574E0,2.138028387E-3,-3.054326226E-4,-0.000000000E0
2.486850865E0,-3.054326226E-4,9.162978968E-4,-0.000000000E0
2.489082920E0,-3.054326226E-4,9.162978968E-4,1.221730490E-3
2.491325840E0,-3.054326226E-4,3.359758761E-3,-1.221730490E-3
2.493562962E0,-3.054326226E-4,-3.054326226E-4,-1.221730490E-3
2.495802098E0,-1.527163084E-3,3.359758761E-3,1.221730490E-3
2.498036289E0,9.162978968E-4,9.162978968E-4,-0.000000000E0
2.500272618E0,-1.527163084E-3,-1.374446787E-3,-1.221730490E-3
2.502509190E0,-4.581489484E-4,-2.596177394E-3,1.221730490E-3
2.504746250E0,9.162978968E-4,9.162978968E-4,-0.000000000E0
2.506983189E0,-3.054326226E-4,2.138028387E-3,1.221730490E-3
2.509219883E0,-1.527163084E-3,-1.527163113E-4,-1.221730490E-3
2.511456516E0,-2.748893574E-3,2.290744567E-3,-0.000000000E0
2.513694248E0,-1.527163084E-3,2.138028387E-3,-0.000000000E0
2.515926853E0,-3.054326226E-4,-3.054326226E-4,-2.443460980E-3
2.518154698E0,2.138028387E-3,9.162978968E-4,-1.221730490E-3
2.520402745E0,9.162978968E-4,-3.054326226E-4,-1.221730490E-3
2.522640110E0,-1.527163084E-3,-1.374446787E-3,-0.000000000E0
2.524879857E0,-2.748893574E-3,1.069014193E-3,1.221730490E-3
2.527113499E0,-2.748893574E-3,1.069014193E-3,1.221730490E-3
2.529350315E0,-3.054326226E-4,-1.527163084E-3,-1.221730490E-3
2.531588047E0,9.162978968E-4,-2.748893574E-3,-1.221730490E-3
2.533823582E0,9.162978968E-4,2.138028387E-3,-0.000000000E0
2.536060276E0,-2.748893574E-3,-1.527163113E-4,-0.000000000E0
2.538297764E0,-3.054326226E-4,-3.054326226E-4,-1.221730490E-3
2.540533848E0,-3.054326226E-4,-1.527163084E-3,-0.000000000E0
2.542770481E0,-3.054326226E-4,3.359758761E-3,-0.000000000E0
2.545004246E0,9.162978968E-4,9.162978968E-4,1.221730490E-3
2.547234043E0,7.635815418E-4,-2.748893574E-3,-0.000000000E0
2.549481602E0,9.162978968E-4,2.138028387E-3,2.443460980E-3
2.551717198E0,-3.054326226E-4,2.138028387E-3,1.221730490E-3
2.553951817E0,-1.527163084E-3,2.138028387E-3,1.221730490E-3
2.556168553E0,-3.054326226E-4,9.162978968E-4,1.221730490E-3
2.558411534E0,-1.527163084E-3,-1.527163113E-4,2.443460980E-3
2.560663975E0,-3.054326226E-4,-1.527163084E-3,1.221730490E-3
2.562905064E0,-2.748893574E-3,-1.527163113E-4,1.221730490E-3
2.565138890E0,-1.527163084E-3,1.069014193E-3,-0.000000000E0
2.567363438E0,-3.054326226E-4,2.138028387E-3,1.221730490E-3
2.569610752E0,9.162978968E-4,9.162978968E-4,1.221730490E-3
2.571847325E0,3.359758761E-3,9.162978968E-4,1.221730490E-3
2.574087132E0,9.162978968E-4,-1.527163084E-3,1.221730490E-3
2.576321324E0,9.162978968E-4,-3.054326226E-4,1.221730490E-3
2.578558079E0,-2.748893574E-3,-1.374446787E-3,-1.221730490E-3
2.580794346E0,9.162978968E-4,-1.527163084E-3,-0.000000000E0
2.583028354E0,-3.054326226E-4,9.162978968E-4,-0.000000000E0
2.585253757E0,-4.581489484E-4,-2.596177394E-3,-1.221730490E-3
2.587492893E0,9.162978968E-4,-1.527163084E-3,1.221730490E-3
2.589741368E0,9.162978968E-4,9.162978968E-4,1.221730490E-3
2.591980687E0,-3.054326226E-4,2.138028387E-3,-0.000000000E0
2.594217503E0,-3.054326226E-4,3.359758761E-3,1.221730490E-3
2.596451573E0,-3.054326226E-4,-3.054326226E-4,-0.000000000E0
2.598688206E0,-3.054326226E-4,9.162978968E-4,-0.000000000E0
2.600925327E0,-3.054326226E-4,-3.054326226E-4,-0.000000000E0
2.603162754E0,-1.527163084E-3,4.581489135E-3,1.221730490E-3
2.605398411E0,9.162978968E-4,2.138028387E-3,1.221730490E-3
2.607635471E0,-3.054326226E-4,9.162978968E-4,-1.221730490E-3
2.609872654E0,2.138028387E-3,9.162978968E-4,-0.000000000E0
2.612108372E0,-3.054326226E-4,9.162978968E-4,-0.000000000E0
2.614345310E0,-1.527163084E-3,-1.527163113E-4,1.221730490E-3
2.616581395E0,9.162978968E-4,9.162978968E-4,1.221730490E-3
2.618818821E0,-3.054326226E-4,-1.527163084E-3,-0.000000000E0
2.621053135E0,-2.748893574E-3,-1.374446787E-3,-1.221730490E-3
2.623279514E0,-3.054326226E-4,-1.527163084E-3,-1.221730490E-3
2.625528782E0,2.138028387E-3,-3.054326226E-4,1.221730490E-3
2.627765293E0,3.359758761E-3,9.162978968E-4,2.443460980E-3
2.630005223E0,-3.054326226E-4,2.138028387E-3,-0.000000000E0
2.632238682E0,2.138028387E-3,2.138028387E-3,-1.221730490E-3
2.634475559E0,-1.527163084E-3,1.069014193E-3,-1.221730490E-3
2.636709934E0,9.162978968E-4,-3.054326226E-4,1.221730490E-3
2.638935520E0,7.635815418E-4,-2.748893574E-3,-0.000000000E0
2.641174107E0,-3.054326226E-4,9.162978968E-4,-0.000000000E0
2.643422764E0,-3.054326226E-4,9.162978968E-4,-1.221730490E-3
2.645662022E0,2.138028387E-3,9.162978968E-4,-0.000000000E0
2.647898900E0,-3.054326226E-4,9.162978968E-4,2.443460980E-3
2.650130772E0,-3.054326226E-4,-1.527163084E-3,-0.000000000E0
2.652361668E0,-3.054326226E-4,2.138028387E-3,-2.443460980E-3
2.654606114E0,7.635815418E-4,-2.748893574E-3,1.221730490E-3
2.656840671E0,-3.054326226E-4,-1.527163084E-3,-1.221730490E-3
2.659069492E0,-3.054326226E-4,-3.054326226E-4,-0.000000000E0
2.661316441E0,-1.527163084E-3,-1.527163113E-4,1.221730490E-3
2.663552891E0,-3.054326226E-4,2.138028387E-3,-1.221730490E-3
2.665792515E0,2.138028387E-3,9.162978968E-4,-2.443460980E-3
2.668026463E0,3.359758761E-3,9.162978968E-4,-1.221730490E-3
2.670262791E0,-3.054326226E-4,2.138028387E-3,-1.221730490E-3
2.672499973E0,9.162978968E-4,-1.527163084E-3,-0.000000000E0
2.674737400E0,-3.054326226E-4,-1.527163084E-3,1.221730490E-3
2.676973118E0,3.359758761E-3,-3.054326226E-4,-0.000000000E0
2.679210239E0,9.162978968E-4,2.138028387E-3,-0.000000000E0
2.681447728E0,-1.527163084E-3,1.069014193E-3,-0.000000000E0
2.683683567E0,-2.748893574E-3,4.734205548E-3,-1.221730490E-3
2.685920078E0,-1.527163084E-3,3.359758761E-3,1.221730490E-3
2.688156468E0,2.138028387E-3,-3.054326226E-4,-1.221730490E-3
2.690394199E0,3.359758761E-3,-1.527163084E-3,-1.221730490E-3
2.692631321E0,9.162978968E-4,-1.527163084E-3,-1.221730490E-3
2.694867161E0,9.162978968E-4,-3.054326226E-4,-0.000000000E0
2.697103550E0,9.162978968E-4,-1.527163084E-3,-0.000000000E0
2.699339940E0,9.162978968E-4,-3.054326226E-4,-0.000000000E0
2.701576817E0,-3.054326226E-4,-1.527163084E-3,-1.221730490E-3
2.703813816E0,-3.054326226E-4,9.162978968E-4,2.443460980E-3
2.706050266E0,-3.054326226E-4,-3.054326226E-4,-0.000000000E0
2.708287632E0,-1.527163084E-3,-1.527163113E-4,-0.000000000E0
2.710525059E0,-3.054326226E-4,-3.054326226E-4,-1.221730490E-3
2.712760655E0,-1.679879380E-3,-2.596177394E-3,-0.000000000E0
2.714996922E0,-1.527163084E-3,2.138028387E-3,-1.221730490E-3
2.717230686E0,3.359758761E-3,9.162978968E-4,-0.000000000E0
2.719459324E0,9.162978968E-4,2.138028387E-3,2.443460980E-3
2.721707249E0,-2.748893574E-3,2.290744567E-3,1.221730490E-3
2.723944126E0,9.162978968E-4,-3.054326226E-4,1.221730490E-3
2.726184239E0,7.635815418E-4,-3.970623948E-3,1.221730490E-3
2.728418980E0,-4.123340361E-3,-3.817907767E-3,1.069014193E-3
2.730654514E0,-1.679879380E-3,-2.596177394E-3,-1.221730490E-3
2.732891026E0,-2.748893574E-3,-1.527163113E-4,-2.443460980E-3
2.735122898E0,9.162978968E-4,-2.748893574E-3,-2.443460980E-3
2.737342808E0,-1.527163084E-3,-1.527163113E-4,-3.665191587E-3
2.739589085E0,-4.581489484E-4,-2.596177394E-3,-1.221730490E-3
2.741838108E0,-4.581489484E-4,-2.596177394E-3,-0.000000000E0
2.744079808E0,-1.679879380E-3,-2.596177394E-3,-1.221730490E-3
2.746315464E0,2.138028387E-3,-1.527163084E-3,1.221730490E-3
2.748547947E0,3.359758761E-3,-3.054326226E-4,1.221730490E-3
2.750784824E0,-3.054326226E-4,2.138028387E-3,-1.221730490E-3
2.753022069E0,-3.054326226E-4,2.138028387E-3,-0.000000000E0
2.755254002E0,2.138028387E-3,9.162978968E-4,-1.221730490E-3
2.757482884E0,2.138028387E-3,-3.054326226E-4,-1.221730490E-3
2.759731358E0,7.635815418E-4,-2.748893574E-3,-0.000000000E0
2.761968967E0,9.162978968E-4,-3.054326226E-4,1.221730490E-3
2.764209019E0,9.162978968E-4,-3.054326226E-4,2.443460980E-3
2.766441807E0,-3.054326226E-4,-3.054326226E-4,-0.000000000E0
2.768678379E0,-2.748893574E-3,-1.374446787E-3,-1.221730490E-3
2.770914952E0,-3.054326226E-4,-1.527163084E-3,1.221730490E-3
2.773151768E0,-3.054326226E-4,-3.054326226E-4,2.443460980E-3
2.775385593E0,-4.581489484E-4,-2.596177394E-3,2.443460980E-3
2.777613194E0,-1.527163084E-3,1.069014193E-3,1.221730490E-3
2.779862278E0,-4.581489484E-4,-2.596177394E-3,-0.000000000E0
2.782095188E0,-3.054326226E-4,-3.054326226E-4,1.221730490E-3
2.784320103E0,9.162978968E-4,-1.527163084E-3,-1.221730490E-3
2.786572178E0,-1.527163084E-3,1.069014193E-3,-0.000000000E0
2.788808506E0,-2.748893574E-3,1.069014193E-3,-0.000000000E0
2.791050145E0,9.162978968E-4,-1.527163084E-3,1.221730490E-3
2.793282078E0,-3.054326226E-4,9.162978968E-4,-2.443460980E-3
2.795515781E0,-2.748893574E-3,-1.527163113E-4,1.221730490E-3
2.797744053E0,3.359758761E-3,2.138028387E-3,-1.221730490E-3
2.799993382E0,-2.748893574E-3,-1.527163113E-4,-1.221730490E-3
2.802229222E0,9.162978968E-4,9.162978968E-4,-1.221730490E-3
2.804468724E0,9.162978968E-4,9.162978968E-4,-0.000000000E0
2.806702366E0,2.138028387E-3,9.162978968E-4,-1.221730490E-3
2.808939366E0,9.162978968E-4,2.138028387E-3,1.221730490E-3
2.811175938E0,9.162978968E-4,2.138028387E-3,-0.000000000E0
2.813412571E0,-1.527163084E-3,-1.527163113E-4,-0.000000000E0
2.815649815E0,-3.054326226E-4,3.359758761E-3,-0.000000000E0
2.817887181E0,-3.054326226E-4,-3.054326226E-4,-1.221730490E-3
2.820123020E0,-3.054326226E-4,9.162978968E-4,-1.221730490E-3
2.822359837E0,-3.054326226E-4,9.162978968E-4,-0.000000000E0
2.824597386E0,-2.748893574E-3,-1.527163113E-4,1.221730490E-3
2.826833164E0,-1.527163084E-3,1.069014193E-3,-0.000000000E0
2.829069676E0,9.162978968E-4,2.138028387E-3,1.221730490E-3
2.831305760E0,9.162978968E-4,-3.054326226E-4,-0.000000000E0
2.833543369E0,-3.054326226E-4,-3.054326226E-4,-0.000000000E0
2.835777866E0,9.162978968E-4,-3.054326226E-4,-0.000000000E0
2.838001438E0,9.162978968E-4,9.162978968E-4,-0.000000000E0
2.840241368E0,9.162978968E-4,-3.054326226E-4,-0.000000000E0
2.842489598E0,9.162978968E-4,-1.527163084E-3,-0.000000000E0
2.844729527E0,9.162978968E-4,-2.748893574E-3,-1.221730490E-3
2.846966282E0,-1.527163084E-3,-1.527163113E-4,1.221730490E-3
2.849200108E0,-3.054326226E-4,-3.054326226E-4,1.221730490E-3
2.851437046E0,-1.527163084E-3,-1.374446787E-3,-0.000000000E0
2.853674778E0,9.162978968E-4,9.162978968E-4,-0.000000000E0
2.855910313E0,-1.527163084E-3,-1.374446787E-3,-0.000000000E0
2.858146946E0,-3.054326226E-4,3.359758761E-3,1.221730490E-3
2.860383458E0,2.138028387E-3,2.138028387E-3,-0.000000000E0
2.862620518E0,-1.527163084E-3,1.069014193E-3,-0.000000000E0
2.864857151E0,-1.527163084E-3,-1.527163113E-4,-0.000000000E0
2.867090916E0,-3.054326226E-4,9.162978968E-4,-1.221730490E-3
2.869318760E0,-3.054326226E-4,-3.054326226E-4,-0.000000000E0
2.871568333E0,-2.748893574E-3,1.069014193E-3,1.221730490E-3
2.873804173E0,-1.679879380E-3,-1.374446787E-3,1.221730490E-3
2.876043919E0,9.162978968E-4,-1.527163084E-3,-0.000000000E0
2.878276951E0,9.162978968E-4,2.138028387E-3,-1.221730490E-3
2.880513828E0,9.162978968E-4,3.359758761E-3,-0.000000000E0
2.882750767E0,2.138028387E-3,-3.054326226E-4,2.443460980E-3
2.884987278E0,-1.527163084E-3,1.069014193E-3,-0.000000000E0
2.887224583E0,-3.970623948E-3,4.734205548E-3,1.221730490E-3
2.889461766E0,9.162978968E-4,-1.527163084E-3,-0.000000000E0
2.891697483E0,2.138028387E-3,-1.527163084E-3,-0.000000000E0
2.893934544E0,-3.054326226E-4,-1.527163084E-3,1.221730490E-3
2.896172093E0,-3.054326226E-4,-3.054326226E-4,-0.000000000E0
2.898407932E0,-1.527163084E-3,-1.527163113E-4,-1.221730490E-3
2.900644444E0,-1.527163084E-3,-1.527163113E-4,1.221730490E-3
2.902878025E0,-3.054326226E-4,-1.527163084E-3,-0.000000000E0
2.905104343E0,-4.581489484E-4,-2.596177394E-3,1.221730490E-3
2.907343723E0,9.162978968E-4,-1.527163084E-3,-0.000000000E0
2.909591526E0,-1.527163084E-3,-1.374446787E-3,-0.000000000E0
2.911830784E0,-3.970623948E-3,-1.527163113E-4,-1.221730490E-3
2.914067540E0,9.162978968E-4,3.359758761E-3,-1.221730490E-3
2.916301182E0,-3.054326226E-4,-3.054326226E-4,-0.000000000E0
2.918538182E0,-3.054326226E-4,-1.527163084E-3,-1.221730490E-3
2.920774571E0,2.138028387E-3,-3.054326226E-4,-1.221730490E-3
2.923011997E0,9.162978968E-4,-1.527163084E-3,-1.221730490E-3
2.925246555E0,-1.679879380E-3,-1.374446787E-3,1.221730490E-3
2.927473667E0,-3.054326226E-4,-3.054326226E-4,-0.000000000E0
2.929721836E0,7.635815418E-4,-3.970623948E-3,1.221730490E-3
2.931955113E0,4.581489135E-3,-3.054326226E-4,-0.000000000E0
2.934185887E0,2.138028387E-3,-3.054326226E-4,-2.443460980E-3
2.936431736E0,4.581489135E-3,9.162978968E-4,-1.221730490E-3
2.938668370E0,-3.054326226E-4,-3.054326226E-4,-2.443460980E-3
2.940908482E0,-4.581489484E-4,-1.527163084E-3,2.443460980E-3
2.943143040E0,2.138028387E-3,-1.527163084E-3,1.221730490E-3
2.945378880E0,-1.679879380E-3,-1.374446787E-3,2.443460980E-3
2.947615452E0,-1.527163084E-3,1.069014193E-3,1.221730490E-3
2.949851963E0,9.162978968E-4,-1.527163084E-3,1.221730490E-3
2.952088780E0,9.162978968E-4,-3.054326226E-4,2.443460980E-3
2.954325596E0,-1.527163084E-3,-1.527163113E-4,-0.000000000E0
2.956562168E0,-1.527163084E-3,-1.527163113E-4,2.443460980E-3
2.958799290E0,-3.054326226E-4,-3.054326226E-4,-0.000000000E0
2.961036778E0,-2.901609987E-3,-2.596177394E-3,1.221730490E-3
2.963272373E0,-2.748893574E-3,-1.374446787E-3,-1.221730490E-3
2.965509251E0,-2.748893574E-3,-1.527163113E-4,-0.000000000E0
2.967746739E0,-3.054326226E-4,9.162978968E-4,-0.000000000E0
2.969980381E0,-3.054326226E-4,-3.054326226E-4,1.221730490E-3
2.972210423E0,2.138028387E-3,3.359758761E-3,-0.000000000E0
2.974455723E0,9.162978968E-4,-2.748893574E-3,-1.221730490E-3
2.976693089E0,9.162978968E-4,-2.748893574E-3,-1.221730490E-3
2.978932835E0,9.162978968E-4,9.162978968E-4,-1.221730490E-3
2.981166172E0,9.162978968E-4,-1.527163084E-3,-0.000000000E0
2.983402745E0,9.162978968E-4,-3.054326226E-4,1.221730490E-3
2.985639317E0,2.138028387E-3,9.162978968E-4,-0.000000000E0
2.987876377E0,9.162978968E-4,9.162978968E-4,-0.000000000E0
2.990112950E0,9.162978968E-4,9.162978968E-4,2.443460980E-3
2.992349583E0,-1.527163084E-3,3.359758761E-3,1.221730490E-3
2.994586826E0,9.162978968E-4,4.581489135E-3,-0.000000000E0
2.996824131E0,9.162978968E-4,2.138028387E-3,1.221730490E-3
2.999055882E0,2.138028387E-3,-2.748893574E-3,-0.000000000E0
3.001280857E0,3.359758761E-3,-3.054326226E-4,1.221730490E-3
3.003532872E0,9.162978968E-4,-3.054326226E-4,-1.221730490E-3
3.005769993E0,-1.527163084E-3,-1.374446787E-3,-1.221730490E-3
3.008010654E0,-3.054326226E-4,-3.054326226E-4,-0.000000000E0
3.010243382E0,-4.581489484E-4,-2.596177394E-3,1.221730490E-3
3.012480381E0,-3.054326226E-4,-1.527163084E-3,-1.221730490E-3
3.014717686E0,9.162978968E-4,-3.054326226E-4,-0.000000000E0
3.016953587E0,2.138028387E-3,-1.527163084E-3,-0.000000000E0
3.019190342E0,-2.748893574E-3,2.290744567E-3,-0.000000000E0
3.021426670E0,-3.054326226E-4,-3.054326226E-4,-0.000000000E0
3.023663487E0,-1.527163084E-3,1.069014193E-3,-0.000000000E0
3.025900303E0,-3.054326226E-4,9.162978968E-4,1.221730490E-3
3.028137120E0,7.635815418E-4,-2.748893574E-3,1.221730490E-3
3.030374058E0,-3.054326226E-4,-1.527163084E-3,-1.221730490E-3
3.032611790E0,2.138028387E-3,-3.054326226E-4,1.221730490E-3
3.034844334E0,9.162978968E-4,-3.054326226E-4,1.221730490E-3
3.037068272E0,9.162978968E-4,3.359758761E-3,1.221730490E-3
3.039302525E0,-3.054326226E-4,2.138028387E-3,-0.000000000E0
3.041545323E0,-3.054326226E-4,9.162978968E-4,-1.221730490E-3
3.043797093E0,-1.527163084E-3,-1.527163113E-4,-0.000000000E0
3.046034458E0,9.162978968E-4,-3.054326226E-4,-0.000000000E0
3.048271031E0,9.162978968E-4,9.162978968E-4,-1.221730490E-3
3.050505284E0,-3.054326226E-4,2.138028387E-3,-0.000000000E0
3.052740879E0,9.162978968E-4,9.162978968E-4,-0.000000000E0
3.054977452E0,9.162978968E-4,3.359758761E-3,-1.221730490E-3
3.057214268E0,-3.054326226E-4,9.162978968E-4,1.221730490E-3
3.059451145E0,-1.527163084E-3,-1.527163113E-4,-0.000000000E0
3.061687962E0,-3.054326226E-4,2.138028387E-3,1.221730490E-3
3.063921482E0,-3.970623948E-3,-1.527163113E-4,1.221730490E-3
3.066145238E0,-3.054326226E-4,9.162978968E-4,-0.000000000E0
3.068381443E0,-3.054326226E-4,-3.054326226E-4,1.221730490E-3
3.070634434E0,-3.054326226E-4,9.162978968E-4,-0.000000000E0
3.072874302E0,-1.527163084E-3,2.138028387E-3,-0.000000000E0
3.075109410E0,2.138028387E-3,9.162978968E-4,1.221730490E-3
3.077332737E0,-3.054326226E-4,-1.527163084E-3,-0.000000000E0
3.079581455E0,9.162978968E-4,2.138028387E-3,-0.000000000E0
3.081818028E0,-1.527163084E-3,1.069014193E-3,-0.000000000E0
3.084058384E0,-1.527163084E-3,1.069014193E-3,-2.443460980E-3
3.086292637E0,-3.054326226E-4,-3.054326226E-4,-1.221730490E-3
3.088528294E0,-1.527163084E-3,1.069014193E-3,-0.000000000E0
3.090765049E0,-3.054326226E-4,-1.527163084E-3,-1.221730490E-3
3.093001622E0,2.138028387E-3,9.162978968E-4,-0.000000000E0
3.095233799E0,2.138028387E-3,9.162978968E-4,-0.000000000E0
3.097456455E0,9.162978968E-4,9.162978968E-4,1.221730490E-3
3.099711827E0,-4.581489484E-4,-1.527163084E-3,2.443460980E-3
3.101944798E0,-2.748893574E-3,-1.527163113E-4,-0.000000000E0
3.104174473E0,-2.748893574E-3,-1.527163113E-4,-1.221730490E-3
3.106421787E0,2.138028387E-3,-3.054326226E-4,-1.221730490E-3
3.108658909E0,-1.679879380E-3,-5.039638374E-3,-1.221730490E-3
3.110900547E0,-1.527163084E-3,-1.374446787E-3,-0.000000000E0
3.113132359E0,-3.054326226E-4,9.162978968E-4,-2.443460980E-3
3.115366123E0,2.138028387E-3,-3.054326226E-4,-1.221730490E-3
3.117593357E0,-3.054326226E-4,9.162978968E-4,-1.221730490E-3
3.119842442E0,-3.054326226E-4,-3.054326226E-4,-0.000000000E0
3.122079991E0,-3.054326226E-4,-1.527163084E-3,-0.000000000E0
3.124318760E0,-3.054326226E-4,-3.054326226E-4,-0.000000000E0
3.126552220E0,-1.527163084E-3,-1.527163113E-4,1.221730490E-3
3.128788975E0,9.162978968E-4,-1.527163084E-3,1.221730490E-3
3.131022922E0,-3.054326226E-4,-1.527163084E-3,-1.221730490E-3
3.133251194E0,2.138028387E-3,-1.527163084E-3,-0.000000000E0
3.135497715E0,-3.054326226E-4,2.138028387E-3,-1.221730490E-3
3.137727513E0,-1.527163084E-3,-1.527163113E-4,-0.000000000E0
3.139965001E0,-1.527163084E-3,-1.374446787E-3,-0.000000000E0
3.142209690E0,-2.901609987E-3,-1.374446787E-3,1.221730490E-3
3.144447728E0,-1.527163084E-3,1.069014193E-3,1.221730490E-3
3.146685703E0,-1.527163084E-3,1.069014193E-3,-0.000000000E0
3.148919529E0,9.162978968E-4,9.162978968E-4,-0.000000000E0
3.151154880E0,-3.054326226E-4,9.162978968E-4,-1.221730490E-3
3.153387791E0,9.162978968E-4,9.162978968E-4,2.443460980E-3
3.155626865E0,9.162978968E-4,2.138028387E-3,-1.221730490E-3
3.157855686E0,-3.054326226E-4,-1.527163084E-3,-1.221730490E-3
3.160104466E0,-3.054326226E-4,-3.054326226E-4,-1.221730490E-3
3.162339878E0,-1.527163084E-3,-1.527163113E-4,-1.221730490E-3
3.164579503E0,-1.527163084E-3,-1.527163113E-4,-1.221730490E-3
3.166810215E0,-1.527163084E-3,1.069014193E-3,-0.000000000E0
3.169033971E0,9.162978968E-4,-3.054326226E-4,-0.000000000E0
3.171269322E0,-1.527163084E-3,-1.527163113E-4,1.221730490E-3
3.173523411E0,2.138028387E-3,-1.527163084E-3,-0.000000000E0
3.175761082E0,4.581489135E-3,-2.748893574E-3,-1.221730490E-3
3.177989048E0,2.138028387E-3,9.162978968E-4,-1.221730490E-3
3.180233677E0,-3.054326226E-4,2.138028387E-3,1.221730490E-3
3.182471165E0,9.162978968E-4,9.162978968E-4,-1.221730490E-3
3.184710240E0,9.162978968E-4,9.162978968E-4,-1.221730490E-3
3.186943882E0,-3.054326226E-4,2.138028387E-3,1.221730490E-3
3.189180272E0,-3.054326226E-4,9.162978968E-4,-0.000000000E0
3.191417149E0,-3.054326226E-4,-3.054326226E-4,-1.221730490E-3
3.193654942E0,-1.679879380E-3,-2.596177394E-3,-2.443460980E-3
3.195890537E0,9.162978968E-4,-2.748893574E-3,-1.221730490E-3
3.198124424E0,9.162978968E-4,2.138028387E-3,1.221730490E-3
3.200351658E0,-4.581489484E-4,-2.596177394E-3,1.221730490E-3
3.202600498E0,-1.527163084E-3,-1.374446787E-3,-0.000000000E0
3.204837254E0,-1.527163084E-3,1.069014193E-3,-0.000000000E0
3.207076939E0,-2.748893574E-3,2.290744567E-3,1.221730490E-3
3.209311314E0,-3.054326226E-4,-1.527163084E-3,-1.221730490E-3
3.211548802E0,-4.581489484E-4,-2.596177394E-3,-1.221730490E-3
3.213784397E0,-1.527163084E-3,-1.374446787E-3,-0.000000000E0
3.216020909E0,-3.054326226E-4,-3.054326226E-4,-0.000000000E0
3.218257420E0,-2.748893574E-3,-1.527163113E-4,-0.000000000E0
3.220494297E0,-3.054326226E-4,2.138028387E-3,-1.221730490E-3
3.222731114E0,-1.527163084E-3,1.069014193E-3,-0.000000000E0
3.224967686E0,-3.054326226E-4,9.162978968E-4,-1.221730490E-3
3.227204807E0,2.138028387E-3,9.162978968E-4,-0.000000000E0
3.229442356E0,-3.054326226E-4,-3.054326226E-4,-1.221730490E-3
3.231678135E0,-3.054326226E-4,-3.054326226E-4,-2.443460980E-3
3.233911594E0,-3.054326226E-4,2.138028387E-3,1.221730490E-3
3.236136631E0,9.162978968E-4,9.162978968E-4,-1.221730490E-3
3.238373386E0,-1.527163084E-3,-1.527163113E-4,-1.221730490E-3
3.240613072E0,7.635815418E-4,-3.970623948E-3,-0.000000000E0
3.242864659E0,9.162978968E-4,-1.527163084E-3,-0.000000000E0
3.245098484E0,-3.054326226E-4,-1.527163084E-3,1.221730490E-3
3.247326878E0,9.162978968E-4,9.162978968E-4,-1.221730490E-3
3.249571629E0,9.162978968E-4,9.162978968E-4,-0.000000000E0
3.251808628E0,-3.054326226E-4,9.162978968E-4,-0.000000000E0
3.254049412E0,-4.581489484E-4,-3.817907767E-3,2.443460980E-3
3.256282139E0,-2.901609987E-3,-2.596177394E-3,-0.000000000E0
3.258518589E0,-3.054326226E-4,-2.596177394E-3,-2.443460980E-3
3.260755223E0,9.162978968E-4,9.162978968E-4,-0.000000000E0
3.262992283E0,9.162978968E-4,-3.054326226E-4,-1.221730490E-3
3.265225560E0,-3.054326226E-4,-3.054326226E-4,-1.221730490E-3
3.267448826E0,2.138028387E-3,9.162978968E-4,-1.221730490E-3
3.269702000E0,-3.054326226E-4,9.162978968E-4,1.221730490E-3
3.271938389E0,-3.054326226E-4,-3.054326226E-4,-1.221730490E-3
3.274179600E0,-3.054326226E-4,-3.054326226E-4,-1.221730490E-3
3.276412266E0,-2.748893574E-3,-1.527163113E-4,-1.221730490E-3
3.278648960E0,-1.527163084E-3,-1.374446787E-3,-1.221730490E-3
3.280886204E0,-2.748893574E-3,2.290744567E-3,1.221730490E-3
3.283123448E0,-3.054326226E-4,9.162978968E-4,-0.000000000E0
3.285359104E0,2.138028387E-3,9.162978968E-4,-0.000000000E0
3.287595799E0,9.162978968E-4,3.359758761E-3,-1.221730490E-3
3.289832188E0,-3.054326226E-4,9.162978968E-4,-1.221730490E-3
3.292069309E0,-3.054326226E-4,-3.054326226E-4,-0.000000000E0
3.294306065E0,-1.527163084E-3,-1.374446787E-3,-0.000000000E0
3.296542698E0,7.635815418E-4,-2.748893574E-3,1.221730490E-3
3.298779697E0,-3.054326226E-4,-3.054326226E-4,1.221730490E-3
3.301015964E0,2.138028387E-3,-3.054326226E-4,-0.000000000E0
3.303248631E0,-4.581489484E-4,-2.596177394E-3,-1.221730490E-3
3.305489170E0,-1.527163084E-3,3.359758761E-3,-0.000000000E0
3.307725987E0,3.359758761E-3,9.162978968E-4,1.221730490E-3
3.309963902E0,9.162978968E-4,9.162978968E-4,-0.000000000E0
3.312199925E0,-3.054326226E-4,9.162978968E-4,-1.221730490E-3
3.314436192E0,-3.054326226E-4,2.138028387E-3,-0.000000000E0
3.316673313E0,9.162978968E-4,2.138028387E-3,1.221730490E-3
3.318910740E0,-2.748893574E-3,1.069014193E-3,-0.000000000E0
3.321146397E0,-3.054326226E-4,2.138028387E-3,-1.221730490E-3
3.323383274E0,-2.901609987E-3,-1.374446787E-3,-0.000000000E0
3.325620762E0,9.162978968E-4,-1.527163084E-3,-0.000000000E0
3.327856663E0,-3.054326226E-4,-2.596177394E-3,-2.443460980E-3
3.330093418E0,-3.054326226E-4,-3.054326226E-4,1.221730490E-3
3.332329441E0,2.138028387E-3,-1.527163084E-3,1.221730490E-3
3.334566807E0,-3.054326226E-4,2.138028387E-3,-0.000000000E0
3.336804356E0,2.138028387E-3,3.359758761E-3,1.221730490E-3
3.339040257E0,-3.054326226E-4,9.162978968E-4,-0.000000000E0
3.341276829E0,9.162978968E-4,9.162978968E-4,-0.000000000E0
3.343513340E0,-1.527163084E-3,-1.527163113E-4,-1.221730490E-3
3.345750218E0,-1.527163084E-3,1.069014193E-3,-0.000000000E0
3.347987217E0,9.162978968E-4,2.138028387E-3,-1.221730490E-3
3.350223545E0,9.162978968E-4,3.359758761E-3,-1.221730490E-3
3.352460728E0,-3.054326226E-4,-3.054326226E-4,-1.221730490E-3
3.354698399E0,-3.054326226E-4,3.359758761E-3,1.221730490E-3
3.356934056E0,9.162978968E-4,-1.527163084E-3,-0.000000000E0
3.359170689E0,9.162978968E-4,-1.527163084E-3,1.221730490E-3
3.361407322E0,9.162978968E-4,-1.527163084E-3,2.443460980E-3
3.363643955E0,-3.054326226E-4,2.138028387E-3,-0.000000000E0
3.365880833E0,-3.054326226E-4,2.138028387E-3,-0.000000000E0
3.368117527E0,-2.901609987E-3,-1.374446787E-3,1.221730490E-3
3.370354405E0,-3.054326226E-4,-1.527163084E-3,1.221730490E-3
3.372591709E0,9.162978968E-4,2.138028387E-3,1.221730490E-3
3.374827488E0,-3.054326226E-4,2.138028387E-3,-0.000000000E0
3.377064121E0,-1.527163113E-4,5.803219974E-3,-0.000000000E0
3.379300755E0,-1.527163084E-3,4.581489135E-3,1.221730490E-3
3.381537754E0,9.162978968E-4,3.359758761E-3,-0.000000000E0
3.383771397E0,9.162978968E-4,-3.054326226E-4,1.221730490E-3
3.385996372E0,9.162978968E-4,-1.527163084E-3,-2.443460980E-3
3.388236729E0,-2.748893574E-3,4.734205548E-3,-2.443460980E-3
3.390485508E0,-1.527163084E-3,1.069014193E-3,-2.443460980E-3
3.392724095E0,-3.054326226E-4,9.162978968E-4,-1.221730490E-3
3.394961033E0,-5.192354787E-3,1.069014193E-3,1.221730490E-3
3.397192539E0,-1.527163084E-3,2.138028387E-3,1.221730490E-3
3.399419651E0,-3.054326226E-4,-1.527163084E-3,-2.443460980E-3
3.401668125E0,-1.527163084E-3,-1.374446787E-3,-1.221730490E-3
3.403904454E0,-3.054326226E-4,9.162978968E-4,-0.000000000E0
3.406144810E0,-1.527163084E-3,2.138028387E-3,-2.443460980E-3
3.408379551E0,-3.054326226E-4,9.162978968E-4,-1.221730490E-3
3.410614964E0,-3.054326226E-4,-1.527163084E-3,-0.000000000E0
3.412851658E0,9.162978968E-4,-3.054326226E-4,-0.000000000E0
3.415083897E0,2.138028387E-3,9.162978968E-4,-0.000000000E0
3.417308018E0,-3.054326226E-4,-3.054326226E-4,1.221730490E-3
3.419554844E0,-2.748893574E-3,-1.527163113E-4,-0.000000000E0
3.421798618E0,-4.581489484E-4,-2.596177394E-3,-1.221730490E-3
3.424039463E0,-1.527163084E-3,-1.527163113E-4,-1.221730490E-3
3.426274876E0,-1.527163084E-3,1.069014193E-3,2.443460980E-3
3.428508702E0,-2.748893574E-3,1.069014193E-3,1.221730490E-3
3.430745274E0,-1.527163084E-3,-1.527163113E-4,-1.221730490E-3
3.432981846E0,-3.054326226E-4,9.162978968E-4,-1.221730490E-3
3.435215428E0,9.162978968E-4,9.162978968E-4,-1.221730490E-3
3.437441563E0,-3.054326226E-4,-1.527163084E-3,-0.000000000E0
3.439692112E0,9.162978968E-4,2.138028387E-3,-0.000000000E0
3.441929356E0,9.162978968E-4,9.162978968E-4,1.221730490E-3
3.444170201E0,-3.054326226E-4,-1.527163084E-3,1.221730490E-3
3.446402561E0,-3.054326226E-4,-1.527163084E-3,-0.000000000E0
3.448640416E0,7.635815418E-4,-2.748893574E-3,1.221730490E-3
3.450879673E0,9.162978968E-4,9.162978968E-4,1.221730490E-3
3.453107029E0,-3.054326226E-4,-3.054326226E-4,-0.000000000E0
3.455346104E0,-1.527163084E-3,-1.374446787E-3,-1.221730490E-3
3.457572788E0,-1.679879380E-3,-2.596177394E-3,-0.000000000E0
3.459824375E0,9.162978968E-4,9.162978968E-4,-0.000000000E0
3.462060764E0,-3.054326226E-4,-3.054326226E-4,-1.221730490E-3
3.464298985E0,-1.527163084E-3,-1.527163113E-4,1.221730490E-3
3.466532932E0,9.162978968E-4,3.359758761E-3,-0.000000000E0
3.468770359E0,9.162978968E-4,-3.054326226E-4,-0.000000000E0
3.471006321E0,-3.054326226E-4,-1.527163084E-3,-1.221730490E-3
3.473243138E0,-3.054326226E-4,-3.054326226E-4,-0.000000000E0
3.475476414E0,-3.054326226E-4,2.138028387E-3,-0.000000000E0
3.477704746E0,2.138028387E-3,3.359758761E-3,1.221730490E-3
3.479951023E0,9.162978968E-4,-1.527163084E-3,1.221730490E-3
3.482177464E0,-1.527163084E-3,1.069014193E-3,-1.221730490E-3
3.484427708E0,-1.527163084E-3,1.069014193E-3,-2.443460980E-3
3.486663060E0,9.162978968E-4,9.162978968E-4,1.221730490E-3
3.488903050E0,9.162978968E-4,-3.054326226E-4,1.221730490E-3
3.491137058E0,-1.527163084E-3,-1.527163113E-4,-1.221730490E-3
3.493373203E0,-1.527163084E-3,-1.527163113E-4,-1.221730490E-3
3.495607395E0,9.162978968E-4,9.162978968E-4,-0.000000000E0
3.497836399E0,-3.054326226E-4,-3.054326226E-4,-0.000000000E0
3.500083653E0,-3.054326226E-4,-3.054326226E-4,-0.000000000E0
3.502319981E0,-3.054326226E-4,-3.054326226E-4,-2.443460980E-3
3.504559483E0,-1.527163084E-3,-1.527163113E-4,-1.221730490E-3
3.506793858E0,-3.054326226E-4,-3.054326226E-4,2.443460980E-3
3.509030491E0,2.138028387E-3,-1.527163084E-3,-0.000000000E0
3.511267063E0,9.162978968E-4,9.162978968E-4,-0.000000000E0
3.513504002E0,-3.054326226E-4,9.162978968E-4,-2.443460980E-3
3.515741368E0,-3.054326226E-4,2.138028387E-3,-1.221730490E-3
3.517977268E0,-3.054326226E-4,-3.054326226E-4,-0.000000000E0
3.520214085E0,-3.054326226E-4,-3.054326226E-4,-0.000000000E0
3.522450657E0,-1.679879380E-3,-1.374446787E-3,1.221730490E-3
3.524687412E0,-1.527163084E-3,2.138028387E-3,-0.000000000E0
3.526923985E0,-1.527163084E-3,2.138028387E-3,-1.221730490E-3
3.529160740E0,-1.527163084E-3,-1.374446787E-3,-0.000000000E0
3.531397678E0,9.162978968E-4,-3.054326226E-4,-0.000000000E0
3.533634251E0,9.162978968E-4,2.138028387E-3,-1.221730490E-3
3.535863132E0,-3.054326226E-4,-1.527163084E-3,-0.000000000E0
3.538095921E0,9.162978968E-4,9.162978968E-4,-0.000000000E0
3.540345066E0,-3.054326226E-4,-3.054326226E-4,-1.221730490E-3
3.542582188E0,-3.054326226E-4,-3.054326226E-4,-1.221730490E-3
3.544820775E0,-3.054326226E-4,-1.527163084E-3,-0.000000000E0
3.547054173E0,9.162978968E-4,9.162978968E-4,-1.221730490E-3
3.549291721E0,9.162978968E-4,9.162978968E-4,-0.000000000E0
3.551528965E0,-3.054326226E-4,-3.054326226E-4,-1.221730490E-3
3.553764561E0,-3.054326226E-4,-3.054326226E-4,-0.000000000E0
3.556001133E0,9.162978968E-4,9.162978968E-4,-0.000000000E0
3.558237889E0,-3.054326226E-4,2.138028387E-3,-0.000000000E0
3.560474583E0,-3.054326226E-4,9.162978968E-4,-0.000000000E0
3.562711582E0,-3.054326226E-4,-1.527163084E-3,-0.000000000E0
3.564945103E0,-1.679879380E-3,-1.374446787E-3,1.221730490E-3
3.567174046E0,-3.054326226E-4,-1.527163084E-3,-0.000000000E0
3.569422459E0,9.162978968E-4,-3.054326226E-4,-0.000000000E0
3.571658177E0,2.138028387E-3,-3.054326226E-4,1.221730490E-3
3.573897739E0,9.162978968E-4,9.162978968E-4,1.221730490E-3
3.576131565E0,-3.054326226E-4,-1.527163084E-3,1.221730490E-3
3.578368626E0,9.162978968E-4,9.162978968E-4,-2.443460980E-3
3.580605137E0,-3.054326226E-4,-3.054326226E-4,-0.000000000E0
3.582841770E0,9.162978968E-4,2.138028387E-3,-0.000000000E0
3.585074742E0,9.162978968E-4,-1.527163084E-3,-0.000000000E0
3.587299229E0,-3.054326226E-4,-2.596177394E-3,-2.443460980E-3
3.589551975E0,2.138028387E-3,-1.527163084E-3,1.221730490E-3
3.591788731E0,-1.527163084E-3,-1.374446787E-3,-1.221730490E-3
3.594029575E0,-3.054326226E-4,-1.527163084E-3,-0.000000000E0
3.596262181E0,9.162978968E-4,9.162978968E-4,-0.000000000E0
3.598498936E0,9.162978968E-4,-1.527163084E-3,1.221730490E-3
3.600733616E0,9.162978968E-4,-3.054326226E-4,-1.221730490E-3
3.602965000E0,9.162978968E-4,9.162978968E-4,-0.000000000E0
3.605206882E0,2.138028387E-3,-1.527163084E-3,1.221730490E-3
3.607433811E0,-3.054326226E-4,-1.527163084E-3,-0.000000000E0
3.609684666E0,-1.527163084E-3,-1.527163113E-4,-1.221730490E-3
3.611919895E0,-4.581489484E-4,-2.596177394E-3,-1.221730490E-3
3.614158909E0,9.162978968E-4,-3.054326226E-4,-0.000000000E0
3.616392491E0,9.162978968E-4,9.162978968E-4,-0.000000000E0
3.618629124E0,-3.054326226E-4,2.138028387E-3,-0.000000000E0
3.620866367E0,-1.527163084E-3,3.359758761E-3,1.221730490E-3
3.623103733E0,9.162978968E-4,9.162978968E-4,1.221730490E-3
3.625336948E0,9.162978968E-4,-3.054326226E-4,-0.000000000E0
3.627565830E0,-1.527163084E-3,-1.527163113E-4,2.443460980E-3
3.629808262E0,3.359758761E-3,-3.054326226E-4,-0.000000000E0
3.632031834E0,-1.527163084E-3,2.138028387E-3,1.221730490E-3
3.634285679E0,9.162978968E-4,2.138028387E-3,1.221730490E-3
3.636508213E0,9.162978968E-4,4.581489135E-3,1.221730490E-3
3.638752720E0,-3.054326226E-4,-3.054326226E-4,-0.000000000E0
3.640997837E0,-3.054326226E-4,-3.054326226E-4,-1.221730490E-3
3.643236302E0,-3.054326226E-4,9.162978968E-4,-1.221730490E-3
3.645472874E0,-1.527163084E-3,1.069014193E-3,-0.000000000E0
3.647706395E0,-3.054326226E-4,-3.054326226E-4,-0.000000000E0
3.649943211E0,-2.901609987E-3,-1.374446787E-3,1.221730490E-3
3.652179844E0,-1.527163084E-3,1.069014193E-3,1.221730490E-3
3.654416600E0,-1.527163084E-3,2.138028387E-3,-0.000000000E0
3.656653538E0,-3.054326226E-4,2.138028387E-3,2.443460980E-3
3.658891331E0,9.162978968E-4,-3.054326226E-4,-0.000000000E0
3.661126866E0,1.985311974E-3,-2.748893574E-3,1.221730490E-3
3.663363560E0,9.162978968E-4,9.162978968E-4,-1.221730490E-3
3.665600254E0,2.138028387E-3,3.359758761E-3,-1.221730490E-3
3.667837071E0,9.162978968E-4,-3.054326226E-4,-0.000000000E0
3.670073643E0,9.162978968E-4,-3.054326226E-4,1.221730490E-3
3.672310154E0,-2.748893574E-3,1.069014193E-3,-0.000000000E0
3.674547276E0,9.162978968E-4,9.162978968E-4,1.221730490E-3
3.676782017E0,9.162978968E-4,-3.054326226E-4,-1.221730490E-3
3.679009312E0,2.290744567E-3,4.581489135E-3,-0.000000000E0
3.681257786E0,9.162978968E-4,3.359758761E-3,-0.000000000E0
3.683494725E0,9.162978968E-4,-3.054326226E-4,-2.443460980E-3
3.685730198E0,9.162978968E-4,-1.527163084E-3,-1.221730490E-3
3.687955174E0,9.162978968E-4,9.162978968E-4,-0.000000000E0
3.690203770E0,-2.901609987E-3,-1.374446787E-3,-0.000000000E0
3.692441135E0,-1.527163084E-3,-1.374446787E-3,-1.221730490E-3
3.694681431E0,-4.581489484E-4,-2.596177394E-3,-0.000000000E0
3.696914219E0,2.138028387E-3,-3.054326226E-4,1.221730490E-3
3.699150852E0,2.138028387E-3,4.581489135E-3,-0.000000000E0
3.701387608E0,-3.054326226E-4,9.162978968E-4,-1.221730490E-3
3.703624180E0,-3.054326226E-4,9.162978968E-4,-0.000000000E0
3.705861118E0,9.162978968E-4,9.162978968E-4,2.443460980E-3
3.708098057E0,9.162978968E-4,-3.054326226E-4,1.221730490E-3
3.710334934E0,9.162978968E-4,-1.527163084E-3,1.221730490E-3
3.712572117E0,-1.527163084E-3,1.069014193E-3,1.221730490E-3
3.714807347E0,-1.679879380E-3,-1.374446787E-3,2.443460980E-3
3.717044102E0,9.162978968E-4,-1.527163084E-3,2.443460980E-3
3.719281224E0,3.359758761E-3,9.162978968E-4,-0.000000000E0
3.721518345E0,7.635815418E-4,-3.970623948E-3,-1.221730490E-3
3.723754917E0,3.359758761E-3,-2.748893574E-3,-0.000000000E0
3.725991368E0,2.138028387E-3,-3.054326226E-4,-0.000000000E0
3.728228428E0,9.162978968E-4,-3.054326226E-4,-0.000000000E0
3.730465977E0,4.581489135E-3,-3.054326226E-4,-1.221730490E-3
3.732698704E0,-3.054326226E-4,-1.527163084E-3,1.221730490E-3
3.734923740E0,2.138028387E-3,-2.748893574E-3,-0.000000000E0
3.737163060E0,9.162978968E-4,-3.054326226E-4,0.000000000E0
3.739412083E0,-3.054326226E-4,-3.054326226E-4,-1.221730490E-3
3.741651463E0,-1.527163084E-3,1.069014193E-3,0.000000000E0
3.743887913E0,-3.054326226E-4,2.138028387E-3,0.000000000E0
3.746122227E0,9.162978968E-4,9.162978968E-4,1.221730490E-3
3.748359776E0,9.162978968E-4,-3.054326226E-4,0.000000000E0
3.750595493E0,9.162978968E-4,9.162978968E-4,0.000000000E0
3.752832493E0,-2.901609987E-3,-1.374446787E-3,0.000000000E0
3.755068333E0,-3.054326226E-4,-1.527163084E-3,-1.221730490E-3
3.757299961E0,2.138028387E-3,9.162978968E-4,0.000000000E0
3.759542088E0,9.162978968E-4,2.138028387E-3,0.000000000E0
3.761778416E0,-3.054326226E-4,9.162978968E-4,-1.221730490E-3
3.764017185E0,-3.054326226E-4,9.162978968E-4,0.000000000E0
3.766253452E0,-1.527163084E-3,-1.527163113E-4,1.221730490E-3
3.768486423E0,-1.527163084E-3,-1.374446787E-3,0.000000000E0
3.770713597E0,-1.527163084E-3,-1.527163113E-4,1.221730490E-3
3.772962254E0,-3.054326226E-4,2.138028387E-3,0.000000000E0
3.775196202E0,-1.527163084E-3,-1.374446787E-3,-1.221730490E-3
3.777428441E0,-1.527163084E-3,-1.374446787E-3,-1.221730490E-3
3.779672276E0,-3.054326226E-4,2.138028387E-3,0.000000000E0
3.781909702E0,-1.527163084E-3,2.138028387E-3,2.443460980E-3
3.784149753E0,-2.748893574E-3,1.069014193E-3,0.000000000E0
3.786382847E0,9.162978968E-4,3.359758761E-3,-2.443460980E-3
3.788616550E0,3.359758761E-3,2.138028387E-3,1.221730490E-3
3.790843907E0,9.162978968E-4,4.581489135E-3,0.000000000E0
3.793092930E0,-1.527163084E-3,-1.374446787E-3,0.000000000E0
3.795326450E0,2.138028387E-3,2.138028387E-3,0.000000000E0
3.797553257E0,-3.054326226E-4,3.359758761E-3,-1.221730490E-3
3.799787815E0,-3.054326226E-4,9.162978968E-4,-1.221730490E-3
3.802040989E0,-1.527163084E-3,1.069014193E-3,-1.221730490E-3
3.804279515E0,-1.527163084E-3,2.138028387E-3,1.221730490E-3
3.806516758E0,9.162978968E-4,2.138028387E-3,0.000000000E0
3.808749607E0,9.162978968E-4,9.162978968E-4,-1.221730490E-3
3.810986485E0,-3.054326226E-4,-3.054326226E-4,0.000000000E0
3.813223362E0,-2.748893574E-3,2.290744567E-3,0.000000000E0
3.815457004E0,-3.054326226E-4,9.162978968E-4,-1.221730490E-3
3.817685520E0,-3.054326226E-4,-3.054326226E-4,1.221730490E-3
3.819934483E0,-1.527163084E-3,1.069014193E-3,0.000000000E0
3.822170139E0,-3.054326226E-4,3.359758761E-3,2.443460980E-3
3.824410069E0,-1.527163084E-3,3.359758761E-3,0.000000000E0
3.826644444E0,-2.748893574E-3,2.290744567E-3,0.000000000E0
3.828880284E0,-1.527163084E-3,1.069014193E-3,1.221730490E-3
3.831116795E0,-1.679879380E-3,-1.374446787E-3,1.221730490E-3
3.833353123E0,-1.679879380E-3,-1.374446787E-3,1.221730490E-3
3.835587559E0,-3.054326226E-4,-3.054326226E-4,-1.221730490E-3
3.837816380E0,-1.679879380E-3,-1.374446787E-3,1.221730490E-3
3.840063938E0,-1.527163084E-3,3.359758761E-3,-1.221730490E-3
3.842300511E0,3.359758761E-3,9.162978968E-4,0.000000000E0
3.844539951E0,9.162978968E-4,-3.054326226E-4,0.000000000E0
3.846773838E0,-3.054326226E-4,9.162978968E-4,0.000000000E0
3.849010655E0,9.162978968E-4,9.162978968E-4,0.000000000E0
3.851247288E0,-3.054326226E-4,-1.527163084E-3,1.221730490E-3
3.853484592E0,2.138028387E-3,9.162978968E-4,1.221730490E-3
3.855721836E0,9.162978968E-4,9.162978968E-4,-1.221730490E-3
3.857957432E0,9.162978968E-4,9.162978968E-4,-1.221730490E-3
3.860194004E0,-3.054326226E-4,-3.054326226E-4,0.000000000E0
3.862430272E0,9.162978968E-4,9.162978968E-4,0.000000000E0
3.864662449E0,-3.054326226E-4,-1.527163084E-3,-1.221730490E-3
3.866892307E0,-2.748893574E-3,-1.527163113E-4,0.000000000E0
3.869141026E0,-1.527163084E-3,1.069014193E-3,0.000000000E0
3.871378635E0,7.635815418E-4,-3.970623948E-3,-1.221730490E-3
3.873618443E0,2.138028387E-3,-1.527163084E-3,1.221730490E-3
3.875851231E0,9.162978968E-4,-1.527163084E-3,-1.221730490E-3
3.878087864E0,9.162978968E-4,2.138028387E-3,0.000000000E0
3.880324620E0,-3.054326226E-4,3.359758761E-3,0.000000000E0
3.882561192E0,-3.054326226E-4,2.138028387E-3,0.000000000E0
3.884798008E0,9.162978968E-4,-1.527163084E-3,0.000000000E0
3.887034580E0,-1.527163084E-3,-1.527163113E-4,0.000000000E0
3.889271946E0,7.635815418E-4,-2.748893574E-3,0.000000000E0
3.891509251E0,9.162978968E-4,-1.527163084E-3,-2.443460980E-3
3.893745091E0,9.162978968E-4,9.162978968E-4,-1.221730490E-3
3.895981846E0,-2.748893574E-3,-1.527163113E-4,1.221730490E-3
3.898219151E0,-3.054326226E-4,2.138028387E-3,1.221730490E-3
3.900454991E0,2.138028387E-3,-1.527163084E-3,-1.221730490E-3
3.902691807E0,-3.054326226E-4,-3.054326226E-4,0.000000000E0
3.904928135E0,9.162978968E-4,9.162978968E-4,2.443460980E-3
3.907165562E0,-3.054326226E-4,3.359758761E-3,1.221730490E-3
3.909403233E0,2.138028387E-3,-1.527163084E-3,0.000000000E0
3.911638584E0,9.162978968E-4,-3.054326226E-4,-1.221730490E-3
3.913875157E0,-3.054326226E-4,2.138028387E-3,0.000000000E0
3.916108799E0,9.162978968E-4,-3.054326226E-4,1.221730490E-3
3.918337254E0,2.138028387E-3,2.138028387E-3,1.221730490E-3
3.920585179E0,-3.054326226E-4,-3.054326226E-4,0.000000000E0
3.922822239E0,9.162978968E-4,-1.527163084E-3,0.000000000E0
3.925058629E0,3.359758761E-3,-1.527163084E-3,0.000000000E0
3.927282810E0,2.138028387E-3,-3.054326226E-4,-1.221730490E-3
3.929532688E0,2.138028387E-3,-2.748893574E-3,-2.443460980E-3
3.931769200E0,2.138028387E-3,-3.054326226E-4,-1.221730490E-3
3.934009068E0,-3.054326226E-4,-3.054326226E-4,0.000000000E0
3.936242527E0,-2.748893574E-3,-1.527163113E-4,-1.221730490E-3
3.938479100E0,-1.527163084E-3,1.069014193E-3,1.221730490E-3
3.940715733E0,-1.527163084E-3,-1.527163113E-4,2.443460980E-3
3.942952793E0,-1.527163084E-3,-1.527163113E-4,1.221730490E-3
3.945187412E0,-3.054326226E-4,2.138028387E-3,-3.665191587E-3
3.947413609E0,2.138028387E-3,-3.054326226E-4,-2.443460980E-3
3.949660069E0,2.138028387E-3,-1.527163084E-3,-2.443460980E-3
3.951899083E0,9.162978968E-4,-3.054326226E-4,-1.221730490E-3
3.954139073E0,7.635815418E-4,-2.748893574E-3,1.221730490E-3
3.956373386E0,3.359758761E-3,-1.527163084E-3,0.000000000E0
3.958609593E0,9.162978968E-4,2.138028387E-3,-1.221730490E-3
3.960846592E0,-1.527163084E-3,1.069014193E-3,1.221730490E-3
3.963083958E0,-4.581489484E-4,-2.596177394E-3,0.000000000E0
3.965316807E0,-3.054326226E-4,-3.054326226E-4,1.221730490E-3
3.967544895E0,-3.054326226E-4,-1.527163084E-3,-1.221730490E-3
3.969794163E0,-2.901609987E-3,-1.374446787E-3,0.000000000E0
3.972030003E0,-1.527163084E-3,1.069014193E-3,-1.221730490E-3
3.974269688E0,9.162978968E-4,2.138028387E-3,-1.221730490E-3
3.976502842E0,-1.527163084E-3,1.069014193E-3,1.221730490E-3
3.978740391E0,9.162978968E-4,9.162978968E-4,0.000000000E0
3.980977696E0,-3.970623948E-3,1.069014193E-3,-1.221730490E-3
3.983211888E0,-1.527163084E-3,-1.527163113E-4,-1.221730490E-3
3.985440220E0,2.138028387E-3,9.162978968E-4,1.221730490E-3
3.987674473E0,-3.054326226E-4,-3.054326226E-4,0.000000000E0
3.989923496E0,2.138028387E-3,9.162978968E-4,-1.221730490E-3
3.992162022E0,9.162978968E-4,-3.054326226E-4,0.000000000E0
3.994399937E0,2.138028387E-3,-3.054326226E-4,1.221730490E-3
3.996634068E0,2.138028387E-3,9.162978968E-4,0.000000000E0
3.998871739E0,-3.054326226E-4,-1.527163084E-3,0.000000000E0
4.001107090E0,-3.054326226E-4,-3.054326226E-4,2.443460980E-3
4.003343723E0,9.162978968E-4,-3.054326226E-4,0.000000000E0
4.005580418E0,9.162978968E-4,-3.054326226E-4,-1.221730490E-3
4.007817356E0,-3.054326226E-4,9.162978968E-4,-1.221730490E-3
4.010054112E0,-3.054326226E-4,-3.054326226E-4,0.000000000E0
4.012287144E0,-1.527163084E-3,-1.527163113E-4,0.000000000E0
4.014514561E0,-3.054326226E-4,9.162978968E-4,0.000000000E0
4.016765049E0,2.138028387E-3,-1.527163084E-3,-3.665191587E-3
4.019000950E0,9.162978968E-4,-1.527163084E-3,1.221730490E-3
4.021240757E0,-3.054326226E-4,-3.054326226E-4,0.000000000E0
4.023474034E0,-4.123340361E-3,-2.596177394E-3,0.000000000E0
4.025710911E0,-4.123340361E-3,-3.817907767E-3,0.000000000E0
4.027947972E0,-3.054326226E-4,9.162978968E-4,-1.221730490E-3
4.030184483E0,-1.527163084E-3,2.138028387E-3,2.443460980E-3
4.032421360E0,-1.527163084E-3,-1.527163113E-4,0.000000000E0
4.034658787E0,7.635815418E-4,-2.748893574E-3,1.221730490E-3
4.036894383E0,9.162978968E-4,9.162978968E-4,1.221730490E-3
4.039131382E0,-3.054326226E-4,3.359758761E-3,-1.221730490E-3
4.041369053E0,-2.748893574E-3,2.290744567E-3,0.000000000E0
4.043604710E0,-1.679879380E-3,-2.596177394E-3,1.221730490E-3
4.045841587E0,2.138028387E-3,9.162978968E-4,0.000000000E0
4.048077977E0,-3.054326226E-4,-3.054326226E-4,0.000000000E0
4.050315098E0,-1.679879380E-3,-2.596177394E-3,0.000000000E0
4.052552403E0,-4.581489484E-4,-2.596177394E-3,-1.221730490E-3
4.054788182E0,-1.527163084E-3,-1.527163113E-4,-3.665191587E-3
4.057024876E0,-1.527163084E-3,2.138028387E-3,-1.221730490E-3
4.059261631E0,9.162978968E-4,-3.054326226E-4,1.221730490E-3
4.061498264E0,-3.054326226E-4,2.138028387E-3,0.000000000E0
4.063735264E0,9.162978968E-4,2.138028387E-3,-1.221730490E-3
4.065968845E0,1.985311974E-3,-2.748893574E-3,1.221730490E-3
4.068198032E0,-1.527163084E-3,-1.374446787E-3,0.000000000E0
4.070446385E0,-1.527163084E-3,2.138028387E-3,1.221730490E-3
4.072681797E0,9.162978968E-4,3.359758761E-3,1.221730490E-3
4.074921117E0,9.162978968E-4,-3.054326226E-4,0.000000000E0
4.077155186E0,-3.054326226E-4,9.162978968E-4,1.221730490E-3
4.079392246E0,-3.054326226E-4,2.138028387E-3,-1.221730490E-3
4.081628636E0,-1.527163084E-3,2.138028387E-3,1.221730490E-3
4.083865391E0,9.162978968E-4,9.162978968E-4,0.000000000E0
4.086102512E0,-1.527163084E-3,1.069014193E-3,0.000000000E0
4.088340306E0,-1.527163084E-3,3.359758761E-3,0.000000000E0
4.090575596E0,-3.054326226E-4,-1.527163084E-3,0.000000000E0
4.092812168E0,-2.748893574E-3,-1.374446787E-3,-1.221730490E-3
4.095045140E0,-3.054326226E-4,-3.054326226E-4,-1.221730490E-3
4.097271641E0,-1.527163084E-3,2.138028387E-3,0.000000000E0
4.099522434E0,-1.527163084E-3,1.069014193E-3,1.221730490E-3
4.101759251E0,-3.054326226E-4,9.162978968E-4,-1.221730490E-3
4.103999851E0,2.138028387E-3,2.138028387E-3,0.000000000E0
4.106233860E0,-3.054326226E-4,2.138028387E-3,1.221730490E-3
4.108466404E0,9.162978968E-4,-3.054326226E-4,-2.443460980E-3
4.110694309E0,-2.748893574E-3,1.069014193E-3,-1.221730490E-3
4.112943760E0,-3.054326226E-4,9.162978968E-4,1.221730490E-3
4.115178257E0,-3.054326226E-4,2.138028387E-3,0.000000000E0
4.117413792E0,-1.527163084E-3,-1.527163113E-4,-1.221730490E-3
4.119652501E0,-1.527163084E-3,1.069014193E-3,1.221730490E-3
4.121890049E0,-3.054326226E-4,9.162978968E-4,-1.221730490E-3
4.124128697E0,9.162978968E-4,9.162978968E-4,1.221730490E-3
4.126363011E0,-1.527163084E-3,1.069014193E-3,2.443460980E-3
4.128597141E0,-1.527163084E-3,-1.527163113E-4,2.443460980E-3
4.130825840E0,9.162978968E-4,9.162978968E-4,2.443460980E-3
4.133070286E0,9.162978968E-4,9.162978968E-4,1.221730490E-3
4.135295017E0,-3.054326226E-4,-3.054326226E-4,0.000000000E0
4.137533238E0,-3.054326226E-4,-1.527163084E-3,-1.221730490E-3
4.139771702E0,-3.054326226E-4,-1.527163084E-3,-1.221730490E-3
4.142024083E0,7.635815418E-4,-3.970623948E-3,1.221730490E-3
4.144256992E0,2.138028387E-3,-1.527163084E-3,1.221730490E-3
4.146484349E0,-3.054326226E-4,-1.527163084E-3,0.000000000E0
4.148729893E0,2.138028387E-3,-3.054326226E-4,0.000000000E0
4.150966953E0,7.635815418E-4,-3.970623948E-3,1.221730490E-3
4.153206517E0,9.162978968E-4,2.138028387E-3,-1.221730490E-3
4.155437168E0,-3.054326226E-4,9.162978968E-4,-1.221730490E-3
4.157665440E0,-3.054326226E-4,-3.054326226E-4,0.000000000E0
4.159914768E0,-1.527163084E-3,-1.527163113E-4,0.000000000E0
4.162150608E0,9.162978968E-4,-3.054326226E-4,0.000000000E0
4.164390111E0,-3.054326226E-4,-1.527163084E-3,-1.221730490E-3
4.166623692E0,-3.054326226E-4,-3.054326226E-4,-1.221730490E-3
4.168860508E0,-3.054326226E-4,9.162978968E-4,0.000000000E0
4.171097264E0,-3.054326226E-4,9.162978968E-4,0.000000000E0
4.173333653E0,2.138028387E-3,-3.054326226E-4,-1.221730490E-3
4.175568027E0,9.162978968E-4,-3.054326226E-4,-1.221730490E-3
4.177796482E0,-3.054326226E-4,-1.527163084E-3,0.000000000E0
4.180040928E0,-2.748893574E-3,1.069014193E-3,-1.221730490E-3
4.182268955E0,-2.901609987E-3,-2.596177394E-3,0.000000000E0
4.184521214E0,9.162978968E-4,-3.054326226E-4,0.000000000E0
4.186751438E0,-4.581489484E-4,-2.596177394E-3,0.000000000E0
4.188982213E0,9.162978968E-4,-1.527163084E-3,1.221730490E-3
4.191227513E0,9.162978968E-4,9.162978968E-4,0.000000000E0
4.193464756E0,-3.054326226E-4,-3.054326226E-4,0.000000000E0
4.195705052E0,-4.123340361E-3,-3.817907767E-3,1.221730490E-3
4.197937901E0,-2.748893574E-3,-1.374446787E-3,-1.221730490E-3
4.200174473E0,-3.054326226E-4,-1.527163084E-3,0.000000000E0
4.202411045E0,-3.054326226E-4,-3.054326226E-4,-1.221730490E-3
4.204647862E0,9.162978968E-4,-1.527163084E-3,-1.221730490E-3
4.206884739E0,-3.054326226E-4,-3.054326226E-4,0.000000000E0
4.209121495E0,-1.527163084E-3,-1.374446787E-3,0.000000000E0
4.211358372E0,-3.054326226E-4,9.162978968E-4,-1.221730490E-3
4.213595921E0,9.162978968E-4,-2.748893574E-3,-1.221730490E-3
4.215831639E0,-3.054326226E-4,9.162978968E-4,0.000000000E0
4.218068028E0,-3.054326226E-4,-3.054326226E-4,0.000000000E0
4.220304661E0,-2.748893574E-3,1.069014193E-3,-1.221730490E-3
4.222541905E0,9.162978968E-4,9.162978968E-4,0.000000000E0
4.224778538E0,-3.054326226E-4,-1.527163084E-3,1.221730490E-3
4.227015110E0,9.162978968E-4,2.138028387E-3,0.000000000E0
4.229252110E0,-3.054326226E-4,9.162978968E-4,0.000000000E0
4.231486607E0,-3.054326226E-4,-1.527163084E-3,-1.221730490E-3
4.233710056E0,9.162978968E-4,9.162978968E-4,-1.221730490E-3
4.235946934E0,-3.054326226E-4,2.138028387E-3,0.000000000E0
4.238186741E0,9.162978968E-4,-3.054326226E-4,0.000000000E0
4.240438755E0,2.138028387E-3,-1.527163084E-3,0.000000000E0
4.242675023E0,9.162978968E-4,-1.527163084E-3,-1.221730490E-3
4.244911534E0,9.162978968E-4,-3.054326226E-4,0.000000000E0
4.247145664E0,9.162978968E-4,-3.054326226E-4,1.221730490E-3
4.249383457E0,-3.054326226E-4,9.162978968E-4,0.000000000E0
4.251618809E0,-2.748893574E-3,1.069014193E-3,1.221730490E-3
4.253855686E0,-2.748893574E-3,-1.527163113E-4,1.221730490E-3
4.256093174E0,-3.054326226E-4,4.581489135E-3,2.443460980E-3
4.258329319E0,-3.054326226E-4,-1.527163084E-3,1.221730490E-3
4.260562595E0,-3.054326226E-4,-3.054326226E-4,0.000000000E0
4.262785984E0,-1.527163084E-3,3.359758761E-3,1.221730490E-3
4.265024509E0,-3.054326226E-4,2.138028387E-3,-1.221730490E-3
4.267265049E0,-1.527163084E-3,3.359758761E-3,1.221730490E-3
4.269515904E0,-3.054326226E-4,9.162978968E-4,0.000000000E0
4.271752232E0,9.162978968E-4,9.162978968E-4,-1.221730490E-3
4.273988927E0,-3.054326226E-4,9.162978968E-4,-2.443460980E-3
4.276222569E0,9.162978968E-4,9.162978968E-4,0.000000000E0
4.278459446E0,9.162978968E-4,2.138028387E-3,2.443460980E-3
4.280696202E0,-2.901609987E-3,-1.374446787E-3,1.221730490E-3
4.282933323E0,-1.527163084E-3,-1.374446787E-3,0.000000000E0
4.285167698E0,-3.054326226E-4,3.359758761E-3,-1.221730490E-3
4.287394688E0,-3.054326226E-4,2.138028387E-3,-1.221730490E-3
4.289642979E0,9.162978968E-4,9.162978968E-4,0.000000000E0
4.291879612E0,9.162978968E-4,3.359758761E-3,1.221730490E-3
4.294119603E0,-1.527163084E-3,3.359758761E-3,1.221730490E-3
4.296353428E0,-3.054326226E-4,3.359758761E-3,1.221730490E-3
4.298588596E0,-3.054326226E-4,-1.527163084E-3,0.000000000E0
4.300819126E0,-1.679879380E-3,-1.374446787E-3,1.221730490E-3
4.303052098E0,-1.527163084E-3,2.138028387E-3,1.221730490E-3
4.305297031E0,9.162978968E-4,2.138028387E-3,1.221730490E-3
4.307525975E0,-3.054326226E-4,2.138028387E-3,1.221730490E-3
4.309776096E0,-1.527163084E-3,2.138028387E-3,0.000000000E0
4.312009922E0,-2.901609987E-3,-1.374446787E-3,0.000000000E0
4.314249730E0,2.138028387E-3,-1.527163084E-3,-1.221730490E-3
4.316483677E0,9.162978968E-4,9.162978968E-4,0.000000000E0
4.318720921E0,-3.054326226E-4,2.138028387E-3,0.000000000E0
4.320957981E0,-3.054326226E-4,-3.054326226E-4,1.221730490E-3
4.323193760E0,9.162978968E-4,-1.527163084E-3,0.000000000E0
4.325430515E0,-1.527163084E-3,3.359758761E-3,1.221730490E-3
4.327668186E0,9.162978968E-4,2.138028387E-3,1.221730490E-3
4.329901036E0,9.162978968E-4,9.162978968E-4,1.221730490E-3
4.332124912E0,-3.054326226E-4,-1.527163084E-3,0.000000000E0
4.334376927E0,-2.901609987E-3,-1.374446787E-3,0.000000000E0
4.336614170E0,7.635815418E-4,-2.748893574E-3,0.000000000E0
4.338855625E0,2.138028387E-3,-1.527163084E-3,1.221730490E-3
4.341087315E0,9.162978968E-4,-1.527163084E-3,1.221730490E-3
4.343323887E0,9.162978968E-4,9.162978968E-4,0.000000000E0
4.345560765E0,-3.054326226E-4,-3.054326226E-4,-1.221730490E-3
4.347797825E0,2.138028387E-3,9.162978968E-4,0.000000000E0
4.350034397E0,9.162978968E-4,2.138028387E-3,1.221730490E-3
4.352270909E0,-1.527163084E-3,1.069014193E-3,0.000000000E0
4.354505039E0,-1.527163084E-3,-1.527163113E-4,0.000000000E0
4.356730869E0,-3.054326226E-4,-3.054326226E-4,1.221730490E-3
4.358966526E0,-3.054326226E-4,9.162978968E-4,1.221730490E-3
4.361203281E0,9.162978968E-4,3.359758761E-3,1.221730490E-3
4.363442540E0,9.162978968E-4,9.162978968E-4,0.000000000E0
4.365679600E0,-1.527163084E-3,1.069014193E-3,-1.221730490E-3
4.367916172E0,9.162978968E-4,-3.054326226E-4,-1.221730490E-3
4.370152989E0,-1.527163084E-3,2.138028387E-3,0.000000000E0
4.372390232E0,-1.679879380E-3,-2.596177394E-3,0.000000000E0
4.374629124E0,-1.527163084E-3,1.069014193E-3,0.000000000E0
4.376863499E0,-3.054326226E-4,-3.054326226E-4,-1.221730490E-3
4.379101048E0,9.162978968E-4,-3.054326226E-4,0.000000000E0
4.381335911E0,-3.054326226E-4,3.359758761E-3,0.000000000E0
4.383574742E0,-3.054326226E-4,9.162978968E-4,0.000000000E0
4.385816075E0,3.359758761E-3,2.138028387E-3,-1.221730490E-3
4.388046970E0,2.138028387E-3,3.359758761E-3,-1.221730490E-3
4.390284397E0,2.138028387E-3,2.138028387E-3,-3.665191587E-3
4.392519627E0,2.138028387E-3,-3.054326226E-4,-1.221730490E-3
4.394756871E0,9.162978968E-4,-3.054326226E-4,0.000000000E0
4.396996129E0,-3.054326226E-4,2.138028387E-3,0.000000000E0
4.399242833E0,9.162978968E-4,2.138028387E-3,0.000000000E0
4.401467075E0,-3.054326226E-4,-3.054326226E-4,1.221730490E-3
4.403704380E0,-2.748893574E-3,-1.527163113E-4,-1.221730490E-3
4.405937168E0,-2.748893574E-3,-1.527163113E-4,0.000000000E0
4.408180394E0,-3.054326226E-4,-1.527163084E-3,-1.221730490E-3
4.410429417E0,9.162978968E-4,2.138028387E-3,0.000000000E0
4.412665013E0,9.162978968E-4,9.162978968E-4,0.000000000E0
4.414902012E0,2.138028387E-3,-3.054326226E-4,0.000000000E0
4.417135411E0,-1.527163084E-3,-1.527163113E-4,0.000000000E0
4.419372532E0,7.635815418E-4,-3.970623948E-3,1.221730490E-3
4.421608982E0,9.162978968E-4,9.162978968E-4,0.000000000E0
4.423845616E0,-3.054326226E-4,-1.527163084E-3,-1.221730490E-3
4.426082737E0,-1.527163084E-3,1.069014193E-3,0.000000000E0
4.428320530E0,2.138028387E-3,-2.748893574E-3,0.000000000E0
4.430556065E0,2.138028387E-3,-3.054326226E-4,0.000000000E0
4.432789524E0,-3.054326226E-4,3.359758761E-3,0.000000000E0
4.435016880E0,2.138028387E-3,3.359758761E-3,0.000000000E0
4.437263828E0,-3.054326226E-4,-1.527163084E-3,0.000000000E0
4.439502842E0,9.162978968E-4,-1.527163084E-3,-1.221730490E-3
4.441742161E0,-3.054326226E-4,-3.054326226E-4,0.000000000E0
4.443977269E0,-3.054326226E-4,2.138028387E-3,0.000000000E0
4.446213780E0,9.162978968E-4,-3.054326226E-4,0.000000000E0
4.448449986E0,-3.054326226E-4,9.162978968E-4,1.221730490E-3
4.450687412E0,-3.054326226E-4,-3.054326226E-4,1.221730490E-3
4.452923008E0,9.162978968E-4,9.162978968E-4,0.000000000E0
4.455156833E0,-3.054326226E-4,9.162978968E-4,-1.221730490E-3
4.457385106E0,9.162978968E-4,-3.054326226E-4,-2.443460980E-3
4.459632969E0,-3.054326226E-4,-3.054326226E-4,0.000000000E0
4.461867345E0,-1.527163084E-3,-1.527163113E-4,1.221730490E-3
4.464098362E0,-1.527163084E-3,-1.527163113E-4,0.000000000E0
