"Time (s)","Acceleration x (m/s^2)","Acceleration y (m/s^2)","Acceleration z (m/s^2)"
1.537582500E-2,-4.420739710E-1,1.319641709E0,9.635896683E0
1.765648600E-2,-3.948157430E-1,1.356132269E0,9.802796364E0
1.993714700E-2,-3.385843933E-1,1.331007600E0,9.941579819E0
2.221869900E-2,-2.679961324E-1,1.333998680E0,1.008993530E1
2.450000200E-2,-2.213360965E-1,1.318445325E0,1.021914768E1
2.678520600E-2,-1.645065546E-1,1.335793257E0,1.033460140E1
2.906632200E-2,-8.913264424E-2,1.305882931E0,1.043509960E1
3.134756300E-2,-4.666004330E-2,1.304088354E0,1.055952644E1
3.362849300E-2,5.982056609E-4,1.308275819E0,1.061276627E1
3.589523200E-2,2.452643216E-2,1.312463164E0,1.065105152E1
3.813522200E-2,2.871387079E-2,1.312463164E0,1.067498016E1
4.037026900E-2,4.845465720E-2,1.321436286E0,1.067976570E1
4.260671800E-2,3.888336942E-2,1.331007600E0,1.065583706E1
4.484225300E-2,3.888336942E-2,1.340578914E0,1.065105152E1
4.709188600E-2,4.426721856E-2,1.345962763E0,1.061755180E1
4.933022900E-2,1.076770201E-2,1.341775298E0,1.058883858E1
5.156753400E-2,-2.213360928E-2,1.337587833E0,1.052183914E1
5.379830800E-2,-4.546362907E-2,1.357328653E0,1.048295593E1
5.602297800E-2,-6.460621208E-2,1.338784218E0,1.043569756E1
5.826089300E-2,-9.750752151E-2,1.348953724E0,1.037288570E1
6.050930700E-2,-1.501496136E-1,1.340578914E0,1.034417248E1
6.274807600E-2,-1.830509305E-1,1.331605792E0,1.028195858E1
6.498477100E-2,-2.309073806E-1,1.323230863E0,1.023350430E1
6.721798600E-2,-2.494517565E-1,1.337587833E0,1.020000458E1
6.945419200E-2,-2.685943544E-1,1.323829174E0,1.014736271E1
7.168789500E-2,-3.206382394E-1,1.320239902E0,1.007079220E1
7.391555700E-2,-3.631108403E-1,1.321436286E0,1.002233791E1
7.616348100E-2,-3.816552162E-1,1.331605792E0,9.960722923E0
7.840066400E-2,-4.151547253E-1,1.341775298E0,9.917053223E0
8.063863900E-2,-4.480560422E-1,1.313659668E0,9.840482712E0
8.287210000E-2,-4.761717021E-1,1.319641709E0,9.763913155E0
8.510794000E-2,-4.953143001E-1,1.310668588E0,9.706484795E0
8.734487800E-2,-4.947160780E-1,1.305882931E0,9.668798447E0
8.958163300E-2,-5.180460811E-1,1.311266780E0,9.597013474E0
9.181845000E-2,-5.312066078E-1,1.326820135E0,9.477372169E0
9.405355700E-2,-5.551348329E-1,1.317847013E0,9.429515839E0
9.629000700E-2,-5.934200287E-1,1.313659668E0,9.381659508E0
9.852590700E-2,-6.113662124E-1,1.338186026E0,9.319445610E0
1.007625410E-1,-6.257231236E-1,1.333400369E0,9.285946846E0
1.029988090E-1,-6.394818425E-1,1.343569875E0,9.257232666E0
1.052351980E-1,-6.394818425E-1,1.353141189E0,9.228518486E0
1.074718310E-1,-6.538388133E-1,1.358525038E0,9.223732948E0
1.097061450E-1,-6.628118753E-1,1.363310695E0,9.199805260E0
1.119296550E-1,-6.478567123E-1,1.382453322E0,9.180662155E0
1.141692800E-1,-6.334998012E-1,1.405783296E0,9.175876617E0
1.164164710E-1,-6.185446382E-1,1.424925923E0,9.180662155E0
1.186557900E-1,-6.000002623E-1,1.419542074E0,9.200403214E0
1.208920570E-1,-5.706881881E-1,1.419542074E0,9.186046600E0
1.231257620E-1,-5.138586760E-1,1.413560033E0,9.224929810E0
1.253621510E-1,-4.947160780E-1,1.408774376E0,9.229715347E0
1.275992110E-1,-4.474578202E-1,1.383649707E0,9.268598557E0
1.298345020E-1,-4.091726840E-1,1.378265858E0,9.287740707E0
1.320688770E-1,-3.756731451E-1,1.396810174E0,9.326025963E0
1.342989190E-1,-3.236292601E-1,1.386042476E0,9.388837814E0
1.365435470E-1,-2.709871531E-1,1.390229940E0,9.394221306E0
1.387769450E-1,-2.333002090E-1,1.389033556E0,9.456435204E0
1.410064990E-1,-2.147558331E-1,1.378864050E0,9.504291534E0
1.432527760E-1,-2.099701911E-1,1.398006678E0,9.556335449E0
1.454900800E-1,-2.147558331E-1,1.416550994E0,9.594620705E0
1.477293390E-1,-2.392822653E-1,1.398006678E0,9.608977318E0
1.499625540E-1,-2.392822653E-1,1.402792215E0,9.651450157E0
1.521948530E-1,-2.590230405E-1,1.402792215E0,9.665806770E0
1.544219030E-1,-2.685943544E-1,1.388435364E0,9.694520950E0
1.566699500E-1,-2.691925466E-1,1.393221021E0,9.728020668E0
1.589065230E-1,-2.691925466E-1,1.374078393E0,9.723235130E0
1.611463310E-1,-2.644068897E-1,1.383649707E0,9.737591743E0
1.633778360E-1,-2.548356056E-1,1.373480201E0,9.756733894E0
1.656060470E-1,-2.458625287E-1,1.349551916E0,9.742377281E0
1.678517750E-1,-2.452643216E-1,1.373480201E0,9.742377281E0
1.700876760E-1,-2.644068897E-1,1.364507079E0,9.728020668E0
1.723266280E-1,-2.835494876E-1,1.359721422E0,9.717850685E0
1.745605760E-1,-2.787638307E-1,1.369292736E0,9.727422714E0
1.767970260E-1,-3.170489967E-1,1.384247899E0,9.727422714E0
1.790338430E-1,-3.116651475E-1,1.398604870E0,9.689137459E0
1.812708420E-1,-3.499503136E-1,1.399203062E0,9.684351921E0
1.835059500E-1,-3.451646566E-1,1.399203062E0,9.679565430E0
1.857422170E-1,-3.978067636E-1,1.395613790E0,9.664610863E0
1.879783010E-1,-4.067798555E-1,1.409970760E0,9.616754532E0
1.902148730E-1,-4.109672904E-1,1.433898926E0,9.602396965E0
1.924509570E-1,-3.966103494E-1,1.438684583E0,9.583254814E0
1.946873460E-1,-3.960121572E-1,1.448255897E0,9.564111710E0
1.969241620E-1,-4.199403822E-1,1.463211060E0,9.544969559E0
1.991612230E-1,-3.906283081E-1,1.462612867E0,9.516854286E0
2.013963310E-1,-3.667000830E-1,1.438684583E0,9.478569031E0
2.036325980E-1,-3.571287692E-1,1.409970760E0,9.421739578E0
2.058657520E-1,-3.475574851E-1,1.391426325E0,9.378668785E0
2.080906660E-1,-3.577269912E-1,1.353141189E0,9.336195946E0
2.103271160E-1,-3.379862010E-1,1.333998680E0,9.293125153E0
2.125641770E-1,-3.385843933E-1,1.305284739E0,9.269196510E0
2.148044720E-1,-3.146561682E-1,1.300499082E0,9.245866776E0
2.170435480E-1,-3.092723191E-1,1.290927768E0,9.207581520E0
2.192900070E-1,-3.098705411E-1,1.266999602E0,9.179466248E0
2.215267620E-1,-3.092723191E-1,1.266999602E0,9.169894218E0
2.237618700E-1,-2.949153781E-1,1.262213945E0,9.169894218E0
2.259959400E-1,-2.757728100E-1,1.286142230E0,9.169894218E0
2.282319630E-1,-2.285145670E-1,1.265803218E0,9.189635277E0
2.304684130E-1,-2.189432681E-1,1.265803218E0,9.232706070E0
2.327051070E-1,-1.812563092E-1,1.274178028E0,9.299705505E0
2.349419240E-1,-1.764706671E-1,1.288534999E0,9.333204269E0
2.371773360E-1,-1.621137410E-1,1.302293777E0,9.357132912E0
2.394136040E-1,-1.286142170E-1,1.301695466E0,9.409774780E0
2.416466970E-1,-1.004985496E-1,1.305882931E0,9.462417603E0
2.438741140E-1,-1.106680483E-1,1.301097274E0,9.500701904E0
2.461226490E-1,-8.673982322E-2,1.290927768E0,9.538987160E0
2.483589770E-1,-1.064806059E-1,1.286142230E0,9.614959717E0
2.505986010E-1,-1.070788130E-1,1.285543919E0,9.643673897E0
2.528325490E-1,-9.272187948E-2,1.299900889E0,9.701101303E0
2.550677170E-1,-5.982056633E-2,1.298704505E0,9.758528709E0
2.573042290E-1,-4.546362907E-2,1.322632670E0,9.787242889E0
2.595401300E-1,-1.674975827E-2,1.312463164E0,9.825528145E0
2.617769460E-1,2.093719877E-2,1.301695466E0,9.868598938E0
2.640129690E-1,4.007977992E-2,1.292124271E0,9.869196892E0
2.662493580E-1,5.862415582E-2,1.281954765E0,9.926624298E0
2.684858690E-1,4.366901144E-2,1.272383451E0,9.949954987E0
2.707200000E-1,3.409772366E-2,1.277169108E0,9.964311600E0
2.729434490E-1,1.435693540E-2,1.262812138E0,1.001216793E1
2.751829520E-1,-3.409772366E-2,1.244267821E0,1.004028416E1
2.774307550E-1,-8.255238086E-2,1.231107235E0,1.005882835E1
2.796702570E-1,-1.064806059E-1,1.211964726E0,1.005882835E1
2.819062790E-1,-1.112662554E-1,1.202393413E0,1.004925728E1
2.841396780E-1,-1.064806059E-1,1.207179070E0,1.004447079E1
2.863763110E-1,-1.112662554E-1,1.207179070E0,1.005882835E1
2.886136160E-1,-1.262213886E-1,1.155135155E0,1.003489971E1
2.908489670E-1,-1.118644550E-1,1.150349498E0,1.002054310E1
2.930860280E-1,-1.172483116E-1,1.116850019E0,1.000618649E1
2.953210730E-1,-1.166501045E-1,1.107278705E0,9.963115692E0
2.975577070E-1,-1.022931710E-1,1.092921734E0,9.934999466E0
2.997937310E-1,-1.070788130E-1,1.092921734E0,9.925428391E0
3.020271290E-1,-9.750752151E-2,1.088136077E0,9.901499748E0
3.042550340E-1,-1.070788130E-1,1.079162955E0,9.868000984E0
3.065042410E-1,-1.022931710E-1,1.069591761E0,9.839286804E0
3.087364790E-1,-9.272187948E-2,1.026520967E0,9.801599503E0
3.109669470E-1,-9.212367237E-2,1.050449133E0,9.777671814E0
3.132116370E-1,-5.922235921E-2,1.035493970E0,9.782457352E0
3.154480270E-1,-1.615155302E-2,1.025324464E0,9.783055305E0
3.176872850E-1,2.991028363E-3,1.015753269E0,9.759725571E0
3.199206840E-1,4.187439755E-2,1.015154958E0,9.745368004E0
3.221545090E-1,7.956135273E-2,1.009771109E0,9.750752449E0
3.243830860E-1,1.184447184E-1,1.013958573E0,9.736993790E0
3.266294850E-1,1.465603858E-1,1.013360381E0,9.780064583E0
3.288659960E-1,1.471585929E-1,1.037288666E0,9.784850121E0
3.311046430E-1,1.668993831E-1,1.056431174E0,9.770493507E0
3.333385300E-1,1.758724600E-1,1.060618639E0,9.803992271E0
3.355749800E-1,1.621137410E-1,1.080359459E0,9.803992271E0
3.378093550E-1,1.758724600E-1,1.070189953E0,9.823135376E0
3.400406790E-1,2.087737769E-1,1.060020447E0,9.870991707E0
3.422848800E-1,2.470589429E-1,1.073779106E0,9.894919395E0
3.445198660E-1,2.709871531E-1,1.077966571E0,9.929018021E0
3.467582080E-1,3.332005441E-1,1.076770186E0,9.943374634E0
3.489924610E-1,3.714857101E-1,1.085743308E0,9.977472305E0
3.512263470E-1,4.193421602E-1,1.094118118E0,1.001097202E1
3.534541920E-1,4.761717021E-1,1.083948612E0,1.004028416E1
3.557016890E-1,5.198407173E-1,1.107278705E0,1.005045319E1
3.579380780E-1,5.192425251E-1,1.101894855E0,1.007378292E1
3.601781290E-1,5.096712112E-1,1.092921734E0,1.008335495E1
3.624107350E-1,4.719842672E-1,1.112662554E0,1.005942631E1
3.646471240E-1,4.671986103E-1,1.112662554E0,1.003549862E1
3.668791800E-1,4.618147612E-1,1.088734269E0,1.002114105E1
3.691194750E-1,4.241278172E-1,1.089332461E0,1.000139999E1
3.713525070E-1,3.858426511E-1,1.071386337E0,9.972686768E0
3.735810830E-1,3.762713671E-1,1.076171994E0,9.943972588E0
3.758258340E-1,3.529413342E-1,1.086341500E0,9.905687332E0
3.780513600E-1,3.194418252E-1,1.072582722E0,9.862616539E0
3.802923880E-1,2.811566591E-1,1.058824062E0,9.828518867E0
3.825374440E-1,2.434697002E-1,1.083948612E0,9.780662537E0
3.847763350E-1,2.153540403E-1,1.089332461E0,9.747162819E0
3.870127240E-1,1.920240223E-1,1.099501967E0,9.670592308E0
3.892461230E-1,1.591227055E-1,1.114457130E0,9.636494637E0
3.914825120E-1,1.357926875E-1,1.129412293E0,9.579067230E0
3.937194500E-1,1.172483116E-1,1.130010486E0,9.507282257E0
3.959566330E-1,6.939185411E-2,1.121635556E0,9.468997002E0
3.981914360E-1,4.127619043E-2,1.141376376E0,9.425926208E0
4.004275810E-1,3.170489892E-2,1.136590719E0,9.421140671E0
4.026640310E-1,6.580262631E-2,1.150349498E0,9.387641907E0
4.049004810E-1,5.144568533E-2,1.150947690E0,9.378069878E0
4.071368700E-1,5.623133108E-2,1.165304661E0,9.387641907E0
4.093730760E-1,4.187439755E-2,1.150947690E0,9.382855415E0
4.116097090E-1,7.058826834E-2,1.155135155E0,9.382855415E0
4.138467700E-1,7.058826834E-2,1.183848977E0,9.397212982E0
4.160820610E-1,4.606183618E-2,1.155733347E0,9.416355133E0
4.183181450E-1,4.606183618E-2,1.127019525E0,9.401998520E0
4.205542290E-1,1.674975827E-2,1.117448211E0,9.416355133E0
4.227908010E-1,-1.196411345E-2,1.103689432E0,9.410971642E0
4.250271900E-1,-3.170489892E-2,1.066002488E0,9.410971642E0
4.272635180E-1,-8.554340899E-2,1.018744230E0,9.439086914E0
4.295001510E-1,-1.196411327E-1,9.810572863E-1,9.443872452E0
4.317373950E-1,-1.968096644E-1,9.577272534E-1,9.476176262E0
4.339727460E-1,-2.309073806E-1,9.343972206E-1,9.509675026E0
4.362097460E-1,-3.565305769E-1,8.739784956E-1,9.537193298E0
4.384446710E-1,-5.156532526E-1,8.045865893E-1,9.573683739E0
4.406816700E-1,-8.769695163E-1,6.951149702E-1,9.618548393E0
4.429143360E-1,-1.179661512E0,6.370890141E-1,9.644271851E0
4.451421800E-1,-1.342971683E0,6.442674994E-1,9.661619186E0
4.473903490E-1,-1.242473125E0,6.903293133E-1,9.781859398E0
4.496275320E-1,-1.003789067E0,7.381857634E-1,9.984052658E0
4.518658120E-1,-7.220342159E-1,7.998009920E-1,1.016351414E1
4.540992110E-1,-4.307080805E-1,8.237292171E-1,1.033280659E1
4.563352350E-1,-1.770688742E-1,8.524430394E-1,1.043509960E1
4.585715630E-1,-5.982056609E-4,8.446664214E-1,1.052243805E1
4.608078910E-1,8.973085135E-2,7.908278704E-1,1.052841949E1
4.630442800E-1,1.040877849E-1,7.764709592E-1,1.048056316E1
4.652811570E-1,8.075776696E-2,7.722834945E-1,1.039501953E1
4.675181570E-1,9.571290575E-3,7.734799385E-1,1.033220863E1
4.697532640E-1,-3.230310604E-2,8.081758618E-1,1.023170948E1
4.719908120E-1,-7.896314561E-2,8.380861282E-1,1.016889763E1
4.742307420E-1,-1.268195957E-1,8.440681696E-1,1.010668468E1
4.764622490E-1,-1.447657645E-1,8.925228715E-1,1.003489971E1
4.786985770E-1,-1.058823988E-1,9.110672474E-1,1.000199890E1
4.809336230E-1,-8.075776696E-2,9.445667267E-1,9.944570541E0
4.831714770E-1,-2.273181453E-2,9.672985673E-1,9.911669731E0
4.854084770E-1,1.615155302E-2,9.672985673E-1,9.854840279E0
4.876435840E-1,8.853443712E-2,9.810572863E-1,9.798608780E0
4.898799120E-1,8.913264424E-2,9.762716293E-1,9.731609344E0
4.921130660E-1,9.930214286E-2,9.858429432E-1,9.693922997E0
4.943409110E-1,1.088734269E-1,9.619147182E-1,9.655637741E0
4.965890180E-1,9.032905847E-2,9.960124493E-1,9.602995872E0
4.988255300E-1,7.178468257E-2,1.025324464E0,9.588638306E0
5.010648490E-1,6.759724021E-2,1.054038405E0,9.574281693E0
5.032991630E-1,8.673982322E-2,1.077368379E0,9.574281693E0
5.055345140E-1,1.112662554E-1,1.110867858E0,9.588638306E0
5.077717580E-1,1.262213886E-1,1.129412293E0,9.564710617E0
5.100063760E-1,1.453639716E-1,1.143769264E0,9.593423843E0
5.122402630E-1,1.788634956E-1,1.143171072E0,9.598808289E0
5.144643850E-1,1.980060786E-1,1.161715388E0,9.598808289E0
5.167042530E-1,2.075773627E-1,1.156929731E0,9.594022751E0
5.189524830E-1,2.123630047E-1,1.137787223E0,9.613164902E0
5.211925330E-1,2.165504545E-1,1.123430252E0,9.627521515E0
5.234277630E-1,2.356930375E-1,1.137188911E0,9.656235695E0
5.256609180E-1,2.398804724E-1,1.122233868E0,9.689735413E0
5.278970020E-1,2.015953064E-1,1.118046403E0,9.694520950E0
5.301335740E-1,1.866401732E-1,1.099501967E0,9.698708534E0
5.323699020E-1,1.531406492E-1,1.090528965E0,9.698708534E0
5.346061080E-1,1.148554832E-1,1.085743308E0,9.726823807E0
5.368430470E-1,9.511470050E-2,1.057627559E0,9.741181374E0
5.390797410E-1,1.040877849E-1,1.066600680E0,9.798608780E0
5.413155200E-1,9.451649338E-2,1.071386337E0,9.821938515E0
5.435512380E-1,9.391828626E-2,1.057029366E0,9.860223770E0
5.457874440E-1,1.220339537E-1,1.056431174E0,9.932008743E0
5.480238940E-1,1.172483116E-1,1.037288666E0,9.936794281E0
5.502603440E-1,1.310070455E-1,1.036690354E0,9.975079536E0
5.524966720E-1,1.453639716E-1,1.012762189E0,9.979865074E0
5.547332440E-1,1.447657645E-1,1.007976532E0,9.979865074E0
5.569703050E-1,1.495514214E-1,9.978070259E-1,9.984650612E0
5.592056570E-1,1.543370634E-1,9.738788009E-1,9.980463028E0
5.614419850E-1,1.489532143E-1,9.505487680E-1,9.966106415E0
5.636780080E-1,1.489532143E-1,9.314061999E-1,9.970891953E0
5.659143970E-1,1.345962733E-1,9.218349457E-1,9.961320877E0
5.681509080E-1,1.196411327E-1,8.889335990E-1,9.927821159E0
5.703869920E-1,1.154536903E-1,8.889335990E-1,9.903892517E0
5.726236860E-1,1.244267747E-1,8.602197170E-1,9.903892517E0
5.748608690E-1,1.148554832E-1,8.793623447E-1,9.899106979E0
5.770962820E-1,9.990034252E-2,8.458628058E-1,9.908679008E0
5.793333420E-1,1.196411327E-1,8.697910309E-1,9.923035622E0
5.815683890E-1,1.244267747E-1,8.745766878E-1,9.946963310E0
5.838050220E-1,1.381855011E-1,8.691928387E-1,9.966106415E0
5.860411670E-1,1.286142170E-1,8.739784956E-1,9.984650612E0
5.882779830E-1,1.387837082E-1,8.931210637E-1,9.990034103E0
5.905115030E-1,1.292124242E-1,8.883354068E-1,9.979865074E0
5.927385540E-1,1.094716340E-1,8.937192559E-1,9.989436150E0
5.949803760E-1,1.244267747E-1,9.170492887E-1,9.994221687E0
5.972107230E-1,1.058823988E-1,9.224331379E-1,9.955936432E0
5.994620040E-1,1.058823988E-1,9.176474810E-1,9.955936432E0
6.016961350E-1,1.010967568E-1,9.272187948E-1,9.903294563E0
6.039347210E-1,1.016949639E-1,9.278169870E-1,9.865608215E0
6.061679980E-1,9.272187948E-2,9.373882413E-1,9.822537422E0
6.084046920E-1,9.750752151E-2,9.373882413E-1,9.789037704E0
6.106418750E-1,7.836493850E-2,9.284151793E-1,9.765109062E0
6.128767990E-1,9.810572863E-2,9.236295223E-1,9.736394882E0
6.151133720E-1,9.750752151E-2,9.236295223E-1,9.745966911E0
6.173493340E-1,9.750752151E-2,9.092726111E-1,9.722038269E0
6.195828540E-1,1.220339537E-1,9.230313301E-1,9.717850685E0
6.218067310E-1,1.220339537E-1,9.140582681E-1,9.684351921E0
6.240440360E-1,1.028913707E-1,9.188438654E-1,9.703494072E0
6.262953170E-1,9.332008660E-2,9.284151793E-1,9.698110580E0
6.285352460E-1,9.810572863E-2,9.140582681E-1,9.703494072E0
6.307710860E-1,7.417750359E-2,9.242277741E-1,9.698110580E0
6.330039360E-1,8.913264424E-2,9.475577474E-1,9.688538551E0
6.352397760E-1,9.870393574E-2,9.619147182E-1,9.698110580E0
6.374763480E-1,1.226321608E-1,9.571290612E-1,9.684351921E0
6.397124320E-1,1.274178028E-1,9.619147182E-1,9.679565430E0
6.419490650E-1,1.130608693E-1,9.667003751E-1,9.693922997E0
6.441856980E-1,1.082752272E-1,9.762716293E-1,9.708279610E0
6.464230030E-1,1.082752272E-1,9.571290612E-1,9.703494072E0
6.486582930E-1,1.136590764E-1,1.000199914E0,9.727422714E0
6.508953540E-1,1.178465188E-1,9.852447510E-1,9.722636223E0
6.531304010E-1,1.040877849E-1,9.954141974E-1,9.717252731E0
6.553669730E-1,1.322034448E-1,9.852447510E-1,9.756135941E0
6.575998220E-1,1.178465188E-1,9.948160052E-1,9.769894600E0
6.598260790E-1,1.034895778E-1,9.900303483E-1,9.779465675E0
6.620676560E-1,1.082752272E-1,1.004387259E0,9.769894600E0
6.643013600E-1,1.082752272E-1,1.004387259E0,9.779465675E0
6.665514200E-1,1.034895778E-1,9.852447510E-1,9.779465675E0
6.687877480E-1,1.076770201E-1,9.565308690E-1,9.760323524E0
6.710105880E-1,1.076770201E-1,9.475577474E-1,9.745966911E0
6.732478920E-1,9.810572863E-2,9.475577474E-1,9.722038269E0
6.754819630E-1,8.853443712E-2,9.332008362E-1,9.698708534E0
6.777181690E-1,8.853443712E-2,9.188438654E-1,9.698708534E0
6.799552900E-1,5.503492057E-2,9.056833982E-1,9.650253296E0
6.821918630E-1,6.460621208E-2,9.056833982E-1,9.641280174E0
6.844292890E-1,3.589234129E-2,9.008977413E-1,9.645467758E0
6.866730030E-1,2.632104978E-2,8.967102766E-1,9.640682220E0
6.888992600E-1,-2.392822644E-3,8.871390224E-1,9.616754532E0
6.911354660E-1,-1.674975827E-2,8.925228715E-1,9.597611427E0
6.933692310E-1,-1.674975827E-2,8.829515576E-1,9.611968994E0
6.956234430E-1,-2.153540403E-2,8.925228715E-1,9.611370087E0
6.978598920E-1,-2.632104978E-2,9.020941257E-1,9.620942116E0
7.000979290E-1,-2.632104978E-2,9.068797827E-1,9.640084267E0
7.023293750E-1,-4.067798331E-2,8.925228715E-1,9.640084267E0
7.045655200E-1,-5.982056633E-2,8.979067206E-1,9.664012909E0
7.068017870E-1,-3.170489892E-2,8.877372146E-1,9.683155060E0
7.090381760E-1,-2.213360928E-2,8.967102766E-1,9.711869240E0
7.112717580E-1,-1.734796353E-2,8.823533654E-1,9.711869240E0
7.134988700E-1,-1.256231871E-2,9.062815905E-1,9.740582466E0
7.157477100E-1,-2.991028363E-3,9.056833982E-1,9.769296646E0
7.179846480E-1,2.033899166E-2,9.098708034E-1,9.793225288E0
7.202230520E-1,1.136590727E-2,9.248259664E-1,9.788438797E0
7.224570000E-1,5.383851007E-2,9.050851464E-1,9.793225288E0
7.246878950E-1,8.733802289E-2,9.230313301E-1,9.817750931E0
7.269082320E-1,7.776673883E-2,9.236295223E-1,9.817750931E0
7.291470010E-1,1.070788130E-1,9.182456732E-1,9.808179855E0
7.313965740E-1,1.118644550E-1,9.278169870E-1,9.817750931E0
7.336232590E-1,1.357926875E-1,9.176474810E-1,9.803992271E0
7.358795450E-1,1.405783296E-1,9.272187948E-1,9.803992271E0
7.381105030E-1,1.112662554E-1,9.134600163E-1,9.822537422E0
7.403514080E-1,1.166501045E-1,9.182456732E-1,9.798608780E0
7.425825490E-1,1.788634956E-1,9.361918569E-1,9.789635658E0
7.448191210E-1,-3.230310604E-2,8.727820516E-1,9.778269768E0
7.470554490E-1,-4.767699242E-1,6.927221417E-1,9.874580383E0
7.492918380E-1,7.776673883E-2,8.285148144E-1,9.708279610E0
7.515284100E-1,2.518445849E-1,8.506484628E-1,9.513862610E0
7.537634570E-1,3.535395563E-1,9.110672474E-1,9.500701904E0
7.559927660E-1,3.493520916E-1,9.451649189E-1,9.481559753E0
7.582371510E-1,3.451646566E-1,9.930213690E-1,9.486345291E0
7.604731740E-1,3.834498227E-1,1.020538807E0,9.505488396E0
7.627115160E-1,4.031906128E-1,1.020538807E0,9.491130829E0
7.649458300E-1,3.020938635E-1,1.003190875E0,9.504889488E0
7.671822190E-1,1.615155339E-1,9.379864931E-1,9.555737495E0
7.694190350E-1,7.477571070E-2,9.008977413E-1,9.579067230E0
7.716558520E-1,6.520441920E-2,8.913264275E-1,9.583852768E0
7.738912040E-1,1.034895778E-1,8.955138922E-1,9.555737495E0
7.761274710E-1,1.423729509E-1,9.140582681E-1,9.555737495E0
7.783635550E-1,1.668993831E-1,9.236295223E-1,9.522835732E0
7.805999440E-1,1.758724600E-1,9.278169870E-1,9.556335449E0
7.828364550E-1,1.710868180E-1,9.332008362E-1,9.546764374E0
7.850726000E-1,1.333998591E-1,9.571290612E-1,9.574879646E0
7.873094770E-1,8.494520187E-2,9.439685345E-1,9.564710617E0
7.895464770E-1,5.623133108E-2,9.343972206E-1,9.559925079E0
7.917806080E-1,1.316052489E-2,9.116654396E-1,9.535398483E0
7.940129080E-1,7.776673418E-3,9.068797827E-1,9.549755096E0
7.962536920E-1,-2.392822644E-3,8.829515576E-1,9.583254814E0
7.984905690E-1,-2.392822644E-3,8.685946465E-1,9.597611427E0
8.007283000E-1,1.196411345E-2,8.488538265E-1,9.592825890E0
8.029630420E-1,2.093719877E-2,8.440681696E-1,9.597611427E0
8.051997970E-1,3.050848842E-2,8.440681696E-1,9.621540070E0
8.074367970E-1,3.948157281E-2,8.147560954E-1,9.621540070E0
8.096722090E-1,3.409772366E-2,7.908278704E-1,9.655039787E0
8.119082320E-1,5.324030295E-2,7.908278704E-1,9.669396400E0
8.141443780E-1,3.888336942E-2,7.860422134E-1,9.693324089E0
8.163811940E-1,6.281159073E-2,7.998009920E-1,9.717252731E0
8.186175220E-1,5.742774159E-2,7.902296782E-1,9.722038269E0
8.208545820E-1,8.135596663E-2,7.992027402E-1,9.750752449E0
8.230940230E-1,7.657032460E-2,7.896314859E-1,9.750752449E0
8.253271780E-1,5.742774159E-2,7.998009920E-1,9.798608780E0
8.275625900E-1,5.742774159E-2,8.087740541E-1,9.812965393E0
8.297980020E-1,6.161518395E-2,7.992027402E-1,9.822537422E0
8.320327440E-1,6.640082598E-2,8.087740541E-1,9.846465111E0
8.342615650E-1,9.032905847E-2,8.033902049E-1,9.865608215E0
8.365078420E-1,8.554340899E-2,8.129615188E-1,9.870393753E0
8.387439260E-1,9.990034252E-2,8.033902049E-1,9.860821724E0
8.409832440E-1,9.990034252E-2,7.938188910E-1,9.846465111E0
8.432174980E-1,1.148554832E-1,8.177471161E-1,9.836894035E0
8.454527270E-1,1.046859920E-1,8.033902049E-1,9.865608215E0
8.476892990E-1,1.094716340E-1,8.081758618E-1,9.865608215E0
8.499255660E-1,1.052841991E-1,8.177471161E-1,9.827322960E0
8.521589640E-1,1.148554832E-1,8.129615188E-1,9.841679573E0
8.543870530E-1,1.292124242E-1,8.273184299E-1,9.803992271E0
8.566345510E-1,1.339980662E-1,8.362914920E-1,9.823135376E0
8.588672780E-1,1.250249892E-1,8.560323119E-1,9.803992271E0
8.610951210E-1,1.058823988E-1,8.560323119E-1,9.793823242E0
8.633435960E-1,1.106680483E-1,8.464609981E-1,9.784850121E0
8.655808400E-1,1.154536903E-1,8.608179688E-1,9.789635658E0
8.678196700E-1,1.106680483E-1,8.422735929E-1,9.756135941E0
8.700523360E-1,9.631111473E-2,8.518448472E-1,9.803394318E0
8.722856740E-1,1.112662554E-1,8.560323119E-1,9.765707016E0
8.745113200E-1,1.016949639E-1,8.614161611E-1,9.746564865E0
8.767469770E-1,6.340979785E-2,8.620143533E-1,9.707681656E0
8.789872120E-1,6.340979785E-2,8.524430394E-1,9.698110580E0
8.812369060E-1,5.443671346E-2,8.578268886E-1,9.678967476E0
8.834732340E-1,4.965107143E-2,8.386843204E-1,9.641280174E0
8.857092570E-1,6.400800496E-2,8.291130662E-1,9.626923561E0
8.879428390E-1,8.315058798E-2,8.428717852E-1,9.641280174E0
8.901789840E-1,1.070788130E-1,8.470591903E-1,9.660423279E0
8.924153740E-1,9.750752151E-2,8.476574421E-1,9.650852203E0
8.946521900E-1,1.118644550E-1,8.518448472E-1,9.646066666E0
8.968893110E-1,9.750752151E-2,8.476574421E-1,9.636494637E0
8.991246020E-1,1.070788130E-1,8.620143533E-1,9.641280174E0
9.013606860E-1,1.166501045E-1,8.709874153E-1,9.665208817E0
9.035969530E-1,1.166501045E-1,8.614161611E-1,9.669994354E0
9.058332810E-1,1.453639716E-1,8.703892231E-1,9.713663101E0
9.080696700E-1,1.357926875E-1,8.895317912E-1,9.765707016E0
9.103059380E-1,1.399801224E-1,8.985049129E-1,9.808777809E0
9.125425710E-1,1.782652885E-1,9.361918569E-1,9.866206169E0
9.147796310E-1,1.782652885E-1,9.643075466E-1,9.942177773E0
9.170149220E-1,1.686939895E-1,9.930213690E-1,9.975677490E0
9.192511280E-1,1.830509305E-1,1.011565804E0,1.005703354E1
9.214875780E-1,2.027917206E-1,1.045065284E0,1.005224800E1
9.237241500E-1,2.117647976E-1,1.054038405E0,1.008574772E1
9.259619430E-1,2.506481707E-1,1.053440213E0,1.006241703E1
9.281960130E-1,2.554338276E-1,1.053440213E0,1.004806042E1
9.304330120E-1,2.889333367E-1,1.058225870E0,1.002891827E1
9.326697680E-1,3.032902777E-1,1.029511929E0,9.996016502E0
9.349056690E-1,3.080759048E-1,1.005583763E0,9.943374634E0
9.371426680E-1,3.176472187E-1,9.960124493E-1,9.919445992E0
9.393776540E-1,3.415754437E-1,9.625129104E-1,9.857831001E0
9.416141040E-1,3.086741269E-1,9.248259664E-1,9.766903877E0
9.438504320E-1,2.943171859E-1,9.445667267E-1,9.747760773E0
9.460870040E-1,2.853440940E-1,9.355936646E-1,9.671789169E0
9.483235760E-1,2.955136001E-1,9.403793216E-1,9.633503914E0
9.505603930E-1,2.811566591E-1,9.690931439E-1,9.623932838E0
9.527959280E-1,2.291127741E-1,9.846464992E-1,9.589835167E0
9.550319510E-1,2.147558331E-1,9.846464992E-1,9.599406242E0
9.572679130E-1,1.956132501E-1,9.900303483E-1,9.585049629E0
9.595047290E-1,1.812563092E-1,9.900303483E-1,9.589237213E0
9.617412400E-1,1.860419661E-1,9.852447510E-1,9.584450722E0
9.639772020E-1,1.908276081E-1,9.661021233E-1,9.589835167E0
9.662139570E-1,1.806581169E-1,9.661021233E-1,9.608379364E0
9.684509570E-1,1.710868180E-1,9.565308690E-1,9.627521515E0
9.706864310E-1,1.567298770E-1,9.804590940E-1,9.661021233E0
9.729225150E-1,1.226321608E-1,9.804590940E-1,9.736993790E0
9.751579880E-1,1.369891018E-1,9.804590940E-1,9.751350403E0
9.773951100E-1,1.322034448E-1,9.996016622E-1,9.756135941E0
9.796316210E-1,1.513460279E-1,9.894321561E-1,9.784850121E0
9.818679490E-1,1.848455518E-1,9.984052777E-1,9.765707016E0
9.841045820E-1,1.842473447E-1,9.792626500E-1,9.784850121E0
9.863412770E-1,1.794617027E-1,9.792626500E-1,9.780064583E0
9.885765060E-1,1.938186288E-1,9.744769931E-1,9.808777809E0
9.908100270E-1,2.081755698E-1,9.792626500E-1,9.790233612E0
9.930382370E-1,1.938186288E-1,9.840483069E-1,9.813564301E0
9.952899460E-1,1.890329868E-1,9.744769931E-1,9.808777809E0
9.975220020E-1,2.081755698E-1,9.744769931E-1,9.799804688E0
9.997611370E-1,1.794617027E-1,9.888339639E-1,9.808777809E0
1.001997526E0,1.561316848E-1,9.990034699E-1,9.794421196E0
1.004246367E0,1.513460279E-1,9.942178130E-1,9.780064583E0
1.006467375E0,1.657029688E-1,9.894321561E-1,9.784850121E0
1.008704436E0,1.459621787E-1,9.655039310E-1,9.765707016E0
1.010936126E0,1.561316848E-1,9.702895880E-1,9.746564865E0
1.013176177E0,1.609173268E-1,9.607182741E-1,9.708279610E0
1.015412505E0,1.322034448E-1,9.661021233E-1,9.674779892E0
1.017648955E0,1.555334777E-1,9.278169870E-1,9.689735413E0
1.019882353E0,1.417747438E-1,9.278169870E-1,9.679565430E0
1.022107451E0,1.268195957E-1,9.188438654E-1,9.689137459E0
1.024345916E0,1.172483116E-1,9.332008362E-1,9.708279610E0
1.026593840E0,1.220339537E-1,9.284151793E-1,9.708279610E0
1.028833098E0,1.268195957E-1,9.421738982E-1,9.727422714E0
1.031069426E0,1.124626622E-1,9.379864931E-1,9.703494072E0
1.033303069E0,9.810572863E-2,9.188438654E-1,9.708279610E0
1.035539153E0,1.070788130E-1,8.901300430E-1,9.713065147E0
1.037776030E0,1.022931710E-1,8.901300430E-1,9.684351921E0
1.040012969E0,1.022931710E-1,8.853443861E-1,9.679565430E0
1.042248076E0,9.332008660E-2,8.859425783E-1,9.650852203E0
1.044481169E0,9.750752151E-2,8.763712645E-1,9.655637741E0
1.046708526E0,1.022931710E-1,8.614161611E-1,9.679565430E0
1.048957122E0,1.076770201E-1,8.763712645E-1,9.636494637E0
1.051192656E0,1.028913707E-1,8.955138922E-1,9.650852203E0
1.053429350E0,6.879365444E-2,8.715856671E-1,9.665208817E0
1.055666289E0,7.836493850E-2,8.763712645E-1,9.655637741E0
1.057900480E0,8.374879509E-2,9.002995491E-1,9.650852203E0
1.060128813E0,8.793623000E-2,8.811569214E-1,9.665208817E0
1.062374724E0,1.076770201E-1,8.997012973E-1,9.650852203E0
1.064607634E0,1.220339537E-1,8.901300430E-1,9.622735977E0
1.066837980E0,1.268195957E-1,8.901300430E-1,9.613164902E0
1.069084075E0,1.316052526E-1,8.805587292E-1,9.594022751E0
1.071317290E0,1.507478207E-1,8.853443861E-1,9.613164902E0
1.073548064E0,1.465603858E-1,8.949156404E-1,9.617950439E0
1.075793730E0,1.513460279E-1,8.949156404E-1,9.589237213E0
1.078029326E0,1.465603858E-1,8.901300430E-1,9.589237213E0
1.080269133E0,1.609173268E-1,9.086744189E-1,9.598808289E0
1.082501494E0,1.657029688E-1,9.038887620E-1,9.598808289E0
1.084737822E0,1.663011760E-1,9.182456732E-1,9.574879646E0
1.086971464E0,1.854437590E-1,9.134600163E-1,9.570692062E0
1.089200469E0,1.657029688E-1,8.847461939E-1,9.584450722E0
1.091447173E0,1.704886109E-1,8.991031051E-1,9.598808289E0
1.093684477E0,1.561316848E-1,8.805587292E-1,9.589237213E0
1.095922270E0,1.704886109E-1,8.895317912E-1,9.598808289E0
1.098155852E0,1.992024779E-1,8.985049129E-1,9.608977318E0
1.100391814E0,2.033899277E-1,8.841479421E-1,9.618548393E0
1.102628142E0,2.081755698E-1,8.697910309E-1,9.642477036E0
1.104864531E0,2.123630047E-1,8.458628058E-1,9.666405678E0
1.107100859E0,2.075773627E-1,8.506484628E-1,9.695118904E0
1.109337554E0,1.974078715E-1,8.458628058E-1,9.718449593E0
1.111574797E0,1.968096644E-1,8.165507317E-1,9.737591743E0
1.113809905E0,1.920240223E-1,8.219345808E-1,9.747162819E0
1.116046233E0,1.962114573E-1,7.974081635E-1,9.751948357E0
1.118282256E0,1.818545163E-1,7.788637877E-1,9.737591743E0
1.120518889E0,1.722832322E-1,7.836494446E-1,9.732806206E0
1.122753752E0,1.627119333E-1,7.746763229E-1,9.708877563E0
1.124982634E0,1.537388563E-1,7.794619799E-1,9.699306488E0
1.127215910E0,1.585244983E-1,7.746763229E-1,9.689735413E0
1.129465178E0,1.489532143E-1,7.746763229E-1,9.689735413E0
1.131701995E0,1.441675574E-1,7.657032609E-1,9.661021233E0
1.133939910E0,1.393819153E-1,7.561319470E-1,9.632308006E0
1.136172881E0,1.154536903E-1,7.704889178E-1,9.632308006E0
1.138409270E0,1.064806059E-1,7.758727670E-1,9.622735977E0
1.140645781E0,1.256231815E-1,7.896314859E-1,9.608379364E0
1.142881804E0,1.250249892E-1,7.657032609E-1,9.622735977E0
1.145118315E0,1.208375469E-1,7.752745152E-1,9.617950439E0
1.147355742E0,1.304088384E-1,7.896314859E-1,9.613164902E0
1.149591216E0,1.256231815E-1,7.992027402E-1,9.637093544E0
1.151826811E0,1.112662554E-1,7.944171429E-1,9.650852203E0
1.154053435E0,1.058823988E-1,7.848458290E-1,9.679565430E0
1.156287932E0,1.010967568E-1,7.806583643E-1,9.655637741E0
1.158535857E0,9.571290761E-2,7.615157962E-1,9.674779892E0
1.160774016E0,1.052841991E-1,7.561319470E-1,9.703494072E0
1.163012114E0,1.004985496E-1,7.704889178E-1,9.736993790E0
1.165246123E0,1.004985496E-1,7.896314859E-1,9.770493507E0
1.167478422E0,9.032905847E-2,7.848458290E-1,9.808179855E0
1.169706084E0,9.511470050E-2,7.842476368E-1,9.832108498E0
1.171953643E0,7.058826834E-2,7.896314859E-1,9.875179291E0
1.174187346E0,8.973085135E-2,8.033902049E-1,9.903892517E0
1.176417753E0,9.451649338E-2,8.027920127E-1,9.941579819E0
1.178662932E0,1.130608693E-1,7.932206988E-1,9.975677490E0
1.180899504E0,9.870393574E-2,7.980063558E-1,9.994221687E0
1.183139433E0,1.226321608E-1,7.974081635E-1,1.001336479E1
1.185371611E0,1.178465188E-1,8.117650747E-1,1.004686451E1
1.187608000E0,1.220339537E-1,7.926225066E-1,1.006122112E1
1.189844268E0,1.507478207E-1,8.015955687E-1,1.007139015E1
1.192077666E0,1.459621787E-1,8.063812256E-1,1.009950638E1
1.194305083E0,1.603191197E-1,7.962117195E-1,1.010429192E1
1.196553496E0,1.555334777E-1,7.968099117E-1,1.007617569E1
1.198789824E0,1.740778536E-1,7.674978375E-1,1.008096218E1
1.201029753E0,1.794617027E-1,7.770691514E-1,1.007139015E1
1.203262480E0,2.033899277E-1,7.770691514E-1,1.004806042E1
1.205498625E0,1.842473447E-1,7.728816867E-1,1.001874828E1
1.207734832E0,2.177468538E-1,7.627122402E-1,1.002891827E1
1.209971465E0,1.986042857E-1,7.483552694E-1,9.990633011E0
1.212204680E0,2.135594189E-1,7.674978375E-1,9.981060982E0
1.214432158E0,1.842473447E-1,7.680960894E-1,1.000020409E1
1.216680205E0,1.950150430E-1,7.872386575E-1,9.952347755E0
1.218917510E0,1.902294010E-1,8.015955687E-1,9.928419113E0
1.221155791E0,1.902294010E-1,8.159525394E-1,9.957133293E0
1.223390044E0,2.045863420E-1,8.297112584E-1,9.976275444E0
1.225625274E0,2.195414752E-1,8.392825127E-1,9.966704369E0
1.227861663E0,2.243271172E-1,8.632107973E-1,9.995418549E0
1.230097747E0,2.440679073E-1,8.865407705E-1,9.990633011E0
1.232334319E0,2.536391914E-1,8.961120844E-1,1.000020409E1
1.234571135E0,2.542374134E-1,9.248259664E-1,9.990633011E0
1.236807952E0,2.973082066E-1,9.433703423E-1,1.000558758E1
1.239040312E0,2.973082066E-1,9.385846853E-1,9.986445427E0
1.241267546E0,3.170489967E-1,9.571290612E-1,9.957731247E0
1.243515409E0,3.463610709E-1,9.714859724E-1,9.929615974E0
1.245752043E0,3.505485058E-1,9.571290612E-1,9.934401512E0
1.247991546E0,3.607180119E-1,9.858429432E-1,9.891330719E0
1.250224700E0,3.948157430E-1,9.948160052E-1,9.872786522E0
1.252461333E0,3.900300860E-1,1.004387259E0,9.868000984E0
1.254698516E0,4.097708762E-1,9.996016622E-1,9.834501266E0
1.256930693E0,4.193421602E-1,1.013958573E0,9.834501266E0
1.259157988E0,4.241278172E-1,9.996016622E-1,9.787242889E0
1.261405729E0,4.199403822E-1,1.004387259E0,9.753743172E0
1.263642424E0,4.336991012E-1,9.708877802E-1,9.725028992E0
1.265881927E0,4.677968323E-1,9.756734371E-1,9.701699257E0
1.268112090E0,4.636093974E-1,9.852447510E-1,9.668199539E0
1.270339751E0,4.588237405E-1,9.858429432E-1,9.634700775E0
1.272588957E0,4.588237405E-1,9.714859724E-1,9.606584549E0
1.274824309E0,4.450650215E-1,9.858429432E-1,9.568299294E0
1.277063383E0,4.402793646E-1,9.954141974E-1,9.586843491E0
1.279296416E0,4.402793646E-1,9.864411354E-1,9.558728218E0
1.281532988E0,4.360919297E-1,1.000798106E0,9.539586067E0
1.283769316E0,4.163511395E-1,9.912267923E-1,9.562915802E0
1.286002409E0,3.924229145E-1,1.001396298E0,9.553344727E0
1.288230071E0,3.786641955E-1,1.010967612E0,9.557532310E0
1.290479338E0,3.924229145E-1,9.918249846E-1,9.558130264E0
1.292715056E0,3.924229145E-1,9.870393276E-1,9.567701340E0
1.294955290E0,3.828516304E-1,9.918249846E-1,9.586245537E0
1.297187041E0,3.774677813E-1,9.535398483E-1,9.605388641E0
1.299423430E0,3.672982752E-1,9.487541914E-1,9.629316330E0
1.301659635E0,3.242274821E-1,9.541380405E-1,9.610174179E0
1.303896086E0,3.290131092E-1,9.349954724E-1,9.638887405E0
1.306132964E0,3.332005441E-1,9.254241586E-1,9.667003632E0
1.308369963E0,3.278166950E-1,9.014959335E-1,9.676574707E0
1.310605254E0,2.799602449E-1,8.973084688E-1,9.699904442E0
1.312841094E0,2.751746178E-1,8.877372146E-1,9.695118904E0
1.315077361E0,2.745763958E-1,8.829515576E-1,9.719047546E0
1.317313750E0,2.452643216E-1,8.685946465E-1,9.752547264E0
1.319550383E0,2.350948304E-1,8.446664214E-1,9.790233612E0
1.321786467E0,2.350948304E-1,8.494520187E-1,9.833304405E0
1.324024260E0,1.962114573E-1,8.446664214E-1,9.866206169E0
1.326260893E0,1.914258152E-1,8.398807645E-1,9.885348320E0
1.328483245E0,1.962114573E-1,8.446664214E-1,9.899705887E0
1.330731719E0,1.956132501E-1,8.207381964E-1,9.904491425E0
1.332966948E0,2.099701911E-1,8.255237937E-1,9.933204651E0
1.335207731E0,2.003988922E-1,8.303094506E-1,9.909276962E0
1.337440703E0,2.099701911E-1,8.015955687E-1,9.899705887E0
1.339676848E0,2.003988922E-1,7.920243144E-1,9.894919395E0
1.341913664E0,2.003988922E-1,8.063812256E-1,9.880562782E0
1.344150969E0,2.057827413E-1,8.207381964E-1,9.833304405E0
1.346386138E0,1.914258152E-1,8.213363886E-1,9.828518867E0
1.348622405E0,2.063809484E-1,8.213363886E-1,9.790233612E0
1.350858367E0,1.974078715E-1,8.500502706E-1,9.742377281E0
1.353090788E0,1.782652885E-1,8.410771489E-1,9.718449593E0
1.355314909E0,1.782652885E-1,8.219345808E-1,9.699306488E0
1.357566252E0,1.830509305E-1,8.123632669E-1,9.675378799E0
1.359804350E0,1.692921966E-1,8.321040869E-1,9.651450157E0
1.362041655E0,1.645065546E-1,8.273184299E-1,9.613164902E0
1.364262358E0,1.310070455E-1,8.039883971E-1,9.594022751E0
1.366513701E0,1.357926875E-1,8.231309652E-1,9.584450722E0
1.368748748E0,1.316052526E-1,8.333004713E-1,9.574879646E0
1.370988860E0,1.124626622E-1,8.428717852E-1,9.570094109E0
1.373218596E0,9.810572863E-2,8.285148144E-1,9.565308571E0
1.375443388E0,9.332008660E-2,8.386843204E-1,9.570094109E0
1.377682829E0,1.076770201E-1,8.237292171E-1,9.555737495E0
1.379931914E0,8.793623000E-2,8.051848412E-1,9.574879646E0
1.382166838E0,8.315058798E-2,8.195417523E-1,9.583852768E0
1.384394622E0,7.836493850E-2,8.195417523E-1,9.612566948E0
1.386639068E0,6.400800496E-2,8.243274093E-1,9.607781410E0
1.388872588E0,5.862415582E-2,8.195417523E-1,9.636494637E0
1.391102995E0,5.443671346E-2,8.291130662E-1,9.641280174E0
1.393345305E0,3.469592705E-2,8.291130662E-1,9.669396400E0
1.395573454E0,1.076770201E-2,8.201399446E-1,9.678967476E0
1.397825346E0,-3.768695518E-2,7.776673436E-1,9.673583984E0
1.400057585E0,-5.102694035E-1,6.029912829E-1,9.731609344E0
1.402296904E0,-7.770691514E-1,4.582255483E-1,9.834501266E0
1.404529570E0,-1.555334777E-1,5.928218365E-1,9.687342644E0
1.406766387E0,5.682953820E-2,6.143572330E-1,9.527023315E0
1.409002410E0,1.818545163E-1,6.364908218E-1,9.499505997E0
1.411236174E0,1.549352705E-1,7.088736892E-1,9.437292099E0
1.413464690E0,8.374879509E-2,7.770691514E-1,9.417551994E0
1.415712737E0,8.853443712E-2,8.386843204E-1,9.517452240E0
1.417948942E0,1.316052526E-1,8.757730722E-1,9.594022751E0
1.420188933E0,1.890329868E-1,9.176474810E-1,9.680164337E0
1.422410856E0,2.177468538E-1,9.457631707E-1,9.747162819E0
1.424656584E0,2.512463629E-1,9.828519225E-1,9.823733330E0
1.426891997E0,2.219343036E-1,9.738788009E-1,9.861420631E0
1.429131560E0,1.495514214E-1,9.505487680E-1,9.942177773E0
1.431363127E0,8.614161611E-2,9.224331379E-1,1.000379372E1
1.433591155E0,8.554340899E-2,9.032905698E-1,1.005105114E1
1.435838713E0,1.190429255E-1,8.979067206E-1,1.005643559E1
1.438075530E0,1.812563092E-1,9.014959335E-1,1.004267693E1
1.440313810E0,2.243271172E-1,9.008977413E-1,1.004806042E1
1.442547148E0,2.727817893E-1,9.050851464E-1,1.003370380E1
1.444783233E0,2.823530734E-1,9.194421172E-1,1.001515961E1
1.447019622E0,2.727817893E-1,9.098708034E-1,9.991230965E0
1.449256682E0,2.632105052E-1,9.248259664E-1,1.000020409E1
1.451493499E0,2.685943544E-1,9.104689956E-1,9.943374634E0
1.453728850E0,2.590230405E-1,9.056833982E-1,9.919445992E0
1.455960417E0,2.590230405E-1,8.727820516E-1,9.866804123E0
1.458183378E0,2.733799815E-1,8.536394835E-1,9.838688850E0
1.460437590E0,2.925225794E-1,8.488538265E-1,9.800403595E0
1.462674163E0,3.164508045E-1,8.099704385E-1,9.743574142E0
1.464914641E0,3.314059377E-1,8.243274093E-1,9.701101303E0
1.467146880E0,3.361915946E-1,8.153542876E-1,9.658030510E0
1.469384063E0,3.367897868E-1,8.153542876E-1,9.619745255E0
1.471619231E0,3.134597540E-1,8.255237937E-1,9.562317848E0
1.473855559E0,2.901297510E-1,8.500502706E-1,9.557532310E0
1.476091520E0,2.811566591E-1,8.883354068E-1,9.485747337E0
1.478327971E0,2.673979402E-1,8.937192559E-1,9.480961800E0
1.480564482E0,2.243271172E-1,8.943174481E-1,9.442078590E0
1.482800566E0,2.009970993E-1,9.140582681E-1,9.432506561E0
1.485035369E0,1.914258152E-1,9.379864931E-1,9.437292099E0
1.487266875E0,1.914258152E-1,9.332008362E-1,9.408578873E0
1.489509612E0,1.770688742E-1,9.337990284E-1,9.413364410E0
1.491745940E0,1.531406492E-1,9.242277741E-1,9.431908607E0
1.493983855E0,1.770688742E-1,9.188438654E-1,9.427721024E0
1.496218657E0,1.674975902E-1,9.290133715E-1,9.441479683E0
1.498455168E0,1.716850251E-1,9.092726111E-1,9.465408325E0
1.500691313E0,1.758724600E-1,8.901300430E-1,9.498908043E0
1.502928069E0,1.752742529E-1,8.518448472E-1,9.546764374E0
1.505164824E0,1.782652885E-1,7.938188910E-1,9.599406242E0
1.507400481E0,1.728814393E-1,7.746763229E-1,9.651450157E0
1.509637480E0,1.531406492E-1,7.316055298E-1,9.680164337E0
1.511872649E0,1.286142170E-1,7.220342159E-1,9.732208252E0
1.514109221E0,1.040877849E-1,7.226324677E-1,9.780064583E0
1.516345244E0,7.477571070E-2,7.034898400E-1,9.846465111E0
1.518581572E0,4.546362907E-2,6.891329288E-1,9.898509026E0
1.520818144E0,4.486542568E-2,6.843472719E-1,9.927223206E0
1.523052397E0,4.007977992E-2,6.939185858E-1,9.941579819E0
1.525279387E0,6.580262445E-3,6.945167780E-1,9.940981865E0
1.527526946E0,1.794616925E-3,6.705885530E-1,9.940981865E0
1.529762969E0,6.580262445E-3,6.945167780E-1,9.921838760E0
1.532003874E0,7.178467698E-3,6.993024349E-1,9.903294563E0
1.534242766E0,-1.196411345E-2,6.903293133E-1,9.888339996E0
1.536472258E0,7.776673418E-3,7.046862841E-1,9.845867157E0
1.538708891E0,-3.529413417E-2,7.244270444E-1,9.826126099E0
1.540944182E0,-3.948157281E-2,7.244270444E-1,9.792626381E0
1.543181182E0,-3.888336942E-2,7.483552694E-1,9.754940033E0
1.545417327E0,-3.888336942E-2,7.633104324E-1,9.735796928E0
1.547653594E0,-1.914258115E-2,7.866404653E-1,9.735796928E0
1.549889922E0,-1.914258115E-2,7.722834945E-1,9.721440315E0
1.552125578E0,-9.571290575E-3,7.722834945E-1,9.707083702E0
1.554356596E0,-1.914258115E-2,7.770691514E-1,9.702297211E0
1.556587004E0,-5.682953820E-2,7.920243144E-1,9.668798447E0
1.558836272E0,-7.597211748E-2,7.926225066E-1,9.654440880E0
1.561072295E0,-1.046859920E-1,7.740781307E-1,9.644271851E0
1.563310759E0,-2.249253243E-1,7.328019142E-1,9.647860527E0
1.565543975E0,-5.389832854E-1,5.892325640E-1,9.650253296E0
1.567780364E0,-2.021935135E-1,6.705885530E-1,9.619745255E0
1.570016936E0,-4.725824669E-2,6.975077987E-1,9.521040916E0
1.572250029E0,1.555334684E-2,7.154539824E-1,9.488140106E0
1.574477873E0,3.529413417E-2,7.537391186E-1,9.426525116E0
1.576726592E0,4.546362907E-2,7.776673436E-1,9.460023880E0
1.578962248E0,3.170489892E-2,8.207381964E-1,9.464211464E0
1.581202239E0,4.067798331E-2,8.344969153E-1,9.497711182E0
1.583434356E0,5.563312769E-2,8.440681696E-1,9.497711182E0
1.585670684E0,7.477571070E-2,8.530412912E-1,9.512666702E0
1.587906768E0,9.930214286E-2,8.817551732E-1,9.512666702E0
1.590140471E0,1.088734269E-1,9.194421172E-1,9.531808853E0
1.592364897E0,8.973085135E-2,9.056833982E-1,9.550353050E0
1.594602690E0,8.434699476E-2,9.098708034E-1,9.593423843E0
1.596852629E0,5.563312769E-2,9.008977413E-1,9.617352486E0
1.599091581E0,2.632104978E-2,8.961120844E-1,9.655039787E0
1.601328337E0,5.503492057E-2,9.056833982E-1,9.650253296E0
1.603561064E0,5.563312769E-2,9.152546525E-1,9.640682220E0
1.605797637E0,6.999006122E-2,9.433703423E-1,9.645467758E0
1.608033782E0,1.232303679E-1,9.619147182E-1,9.655637741E0
1.610270659E0,1.471585929E-1,9.852447510E-1,9.656235695E0
1.612507659E0,1.286142170E-1,1.000199914E0,9.650852203E0
1.614743010E0,1.429711580E-1,1.013958573E0,9.646066666E0
1.616979094E0,1.429711580E-1,9.996016622E-1,9.650852203E0
1.619212370E0,1.519442350E-1,9.948160052E-1,9.669994354E0
1.621439727E0,1.710868180E-1,9.708877802E-1,9.641879082E0
1.623688079E0,1.710868180E-1,9.661021233E-1,9.632308006E0
1.625924346E0,1.806581169E-1,9.613165259E-1,9.632308006E0
1.628163970E0,2.045863420E-1,9.367900491E-1,9.608977318E0
1.630398101E0,2.237289101E-1,9.463613629E-1,9.613762856E0
1.632633696E0,2.524427772E-1,9.409775138E-1,9.618548393E0
1.634870024E0,2.476571500E-1,9.553344250E-1,9.618548393E0
1.637105985E0,2.476571500E-1,9.744769931E-1,9.652048111E0
1.639342009E0,2.476571500E-1,9.744769931E-1,9.666405678E0
1.641578337E0,2.237289101E-1,9.936196208E-1,9.694520950E0
1.643814727E0,2.333002090E-1,9.840483069E-1,9.718449593E0
1.646051665E0,2.189432681E-1,9.984052777E-1,9.728020668E0
1.648288726E0,2.237289101E-1,9.984052777E-1,9.742377281E0
1.650524260E0,2.327020019E-1,9.834501147E-1,9.751948357E0
1.652761077E0,2.039881349E-1,1.007976532E0,9.784850121E0
1.654992216E0,2.135594189E-1,1.012163997E0,9.813564301E0
1.657216033E0,2.135594189E-1,1.007378340E0,9.808777809E0
1.659468596E0,2.231307179E-1,9.978070259E-1,9.814162254E0
1.661705352E0,2.416750938E-1,9.876375198E-1,9.847661972E0
1.663946135E0,2.225325108E-1,9.834501147E-1,9.814162254E0
1.666176176E0,2.033899277E-1,9.882357717E-1,9.823135376E0
1.668399687E0,2.177468538E-1,9.834501147E-1,9.842277527E0
1.670638762E0,2.129612118E-1,9.978070259E-1,9.832706451E0
1.672886809E0,1.986042857E-1,9.840483069E-1,9.803992271E0
1.675126310E0,1.980060786E-1,9.409775138E-1,9.808777809E0
1.677362638E0,2.081755698E-1,9.649057388E-1,9.780662537E0
1.679595793E0,1.932204217E-1,9.361918569E-1,9.785448074E0
1.681832610E0,1.932204217E-1,9.314061999E-1,9.780662537E0
1.684066618E0,1.746760458E-1,9.272187948E-1,9.742377281E0
1.686292754E0,1.836491376E-1,9.128618240E-1,9.742377281E0
1.688540801E0,1.890329868E-1,9.128618240E-1,9.728020668E0
1.690777068E0,1.836491376E-1,9.032905698E-1,9.718449593E0
1.693016508E0,1.884347796E-1,9.032905698E-1,9.728020668E0
1.695250090E0,1.890329868E-1,9.032905698E-1,9.704092026E0
1.697486174E0,1.746760458E-1,9.080761671E-1,9.704092026E0
1.699723052E0,1.651047617E-1,9.086744189E-1,9.684949875E0
1.701960051E0,1.651047617E-1,9.182456732E-1,9.680164337E0
1.704195403E0,1.507478207E-1,9.182456732E-1,9.675378799E0
1.706431426E0,1.459621787E-1,9.182456732E-1,9.670592308E0
1.708667510E0,1.555334777E-1,8.991031051E-1,9.646664619E0
1.710904143E0,1.417747438E-1,9.140582681E-1,9.632308006E0
1.713140715E0,1.465603858E-1,9.182456732E-1,9.646664619E0
1.715376799E0,1.363908947E-1,9.092726111E-1,9.651450157E0
1.717613432E0,1.280160099E-1,9.475577474E-1,9.636494637E0
1.719850676E0,1.369891018E-1,9.188438654E-1,9.655637741E0
1.722085601E0,1.226321608E-1,9.284151793E-1,9.631709099E0
1.724320342E0,1.226321608E-1,9.379864931E-1,9.631709099E0
1.726557891E0,1.226321608E-1,9.236295223E-1,9.622735977E0
1.728794707E0,1.178465188E-1,9.188438654E-1,9.617352486E0
1.731031462E0,1.082752272E-1,9.146564603E-1,9.607781410E0
1.733267180E0,1.034895778E-1,9.002995491E-1,9.607781410E0
1.735503752E0,9.870393574E-2,9.146564603E-1,9.593423843E0
1.737741057E0,7.477571070E-2,9.152546525E-1,9.612566948E0
1.739976409E0,7.956135273E-2,9.146564603E-1,9.631709099E0
1.742209502E0,7.896314561E-2,9.002995491E-1,9.631709099E0
1.744436431E0,6.939185411E-2,9.050851464E-1,9.646066666E0
1.746684661E0,7.357929647E-2,8.907282352E-1,9.683753014E0
1.748921660E0,4.965107143E-2,8.673982024E-1,9.698110580E0
1.751156096E0,7.357929647E-2,8.715856671E-1,9.712467194E0
1.753376677E0,7.298108935E-2,8.620143533E-1,9.750752449E0
1.755631377E0,7.776673883E-2,8.614161611E-1,9.745966911E0
1.757866790E0,7.238288224E-2,8.518448472E-1,9.765109062E0
1.760107329E0,6.281159073E-2,8.380861282E-1,9.769894600E0
1.762339080E0,6.759724021E-2,8.279166222E-1,9.789037704E0
1.764572844E0,7.238288224E-2,8.518448472E-1,9.798608780E0
1.766802336E0,7.238288224E-2,8.327022791E-1,9.793823242E0
1.769048186E0,5.742774159E-2,8.183453679E-1,9.822537422E0
1.771282072E0,5.742774159E-2,8.087740541E-1,9.817750931E0
1.773512236E0,5.682953820E-2,7.752745152E-1,9.827322960E0
1.775757170E0,3.230310604E-2,7.615157962E-1,9.841081619E0
1.777993438E0,4.187439755E-2,7.615157962E-1,9.827322960E0
1.780232573E0,4.187439755E-2,7.567301393E-1,9.822537422E0
1.782466155E0,6.101697683E-2,7.465606928E-1,9.841679573E0
1.784702422E0,6.041877344E-2,7.274180651E-1,9.856036186E0
1.786938567E0,5.563312769E-2,7.130611539E-1,9.860821724E0
1.789172392E0,5.563312769E-2,7.130611539E-1,9.875179291E0
1.791400420E0,6.041877344E-2,7.369893789E-1,9.888937950E0
1.793647856E0,5.563312769E-2,7.274180651E-1,9.869794846E0
1.795885100E0,6.520441920E-2,7.274180651E-1,9.889535904E0
1.798123076E0,6.041877344E-2,7.274180651E-1,9.865608215E0
1.800357817E0,7.477571070E-2,7.507480979E-1,9.889535904E0
1.802598662E0,6.520441920E-2,7.322037220E-1,9.860821724E0
1.804829070E0,5.623133108E-2,7.704889178E-1,9.860223770E0
1.807065581E0,5.623133108E-2,7.609176040E-1,9.860223770E0
1.809301299E0,7.058826834E-2,7.704889178E-1,9.860821724E0
1.811538176E0,7.118647546E-2,8.039883971E-1,9.836894035E0
1.813774504E0,7.118647546E-2,8.087740541E-1,9.846465111E0
1.816010282E0,6.221338734E-2,8.183453679E-1,9.827322960E0
1.818243986E0,8.195417374E-2,8.566305041E-1,9.817750931E0
1.820471709E0,1.010967568E-1,8.608179688E-1,9.808179855E0
1.822719573E0,1.016949639E-1,8.614161611E-1,9.779465675E0
1.824956145E0,1.016949639E-1,8.847461939E-1,9.793823242E0
1.827196074E0,1.016949639E-1,8.805587292E-1,9.765109062E0
1.829428618E0,1.160518974E-1,8.799605370E-1,9.756135941E0
1.831665068E0,1.399801224E-1,8.895317912E-1,9.765707016E0
1.833900724E0,1.645065546E-1,8.889335990E-1,9.751350403E0
1.836137541E0,1.645065546E-1,9.032905698E-1,9.751350403E0
1.838373748E0,1.788634956E-1,8.937192559E-1,9.761520386E0
1.840610015E0,1.836491376E-1,9.122636318E-1,9.784850121E0
1.842846770E0,1.980060786E-1,9.122636318E-1,9.761520386E0
1.845083770E0,1.884347796E-1,9.170492887E-1,9.766305923E0
1.847318938E0,1.932204217E-1,9.122636318E-1,9.775876999E0
1.849555205E0,1.740778536E-1,9.032905698E-1,9.775279045E0
1.851791288E0,1.980060786E-1,8.979067206E-1,9.751948357E0
1.854027922E0,1.980060786E-1,9.026923180E-1,9.756733894E0
1.856261320E0,1.836491376E-1,9.176474810E-1,9.761520386E0
1.858488860E0,1.740778536E-1,9.128618240E-1,9.751948357E0
1.860737151E0,1.788634956E-1,9.080761671E-1,9.742377281E0
1.862974150E0,1.788634956E-1,8.985049129E-1,9.751948357E0
1.865212493E0,1.836491376E-1,8.937192559E-1,9.742377281E0
1.867446807E0,1.692921966E-1,8.889335990E-1,9.718449593E0
1.869681670E0,1.645065546E-1,8.745766878E-1,9.723235130E0
1.871915373E0,1.351944804E-1,8.751748800E-1,9.741779327E0
1.874139861E0,1.262213886E-1,8.847461939E-1,9.717850685E0
1.876380034E0,1.399801224E-1,8.751748800E-1,9.736993790E0
1.878627776E0,1.208375469E-1,8.847461939E-1,9.756135941E0
1.880867643E0,1.022931710E-1,8.901300430E-1,9.746564865E0
1.883103178E0,1.112662554E-1,8.847461939E-1,9.756135941E0
1.885335539E0,1.112662554E-1,8.799605370E-1,9.760921478E0
1.887569610E0,8.733802289E-2,8.709874153E-1,9.760323524E0
1.889808501E0,1.202393398E-1,8.608179688E-1,9.784850121E0
1.892044218E0,1.304088384E-1,8.703892231E-1,9.794421196E0
1.894279082E0,1.256231815E-1,8.703892231E-1,9.799206734E0
1.896518218E0,1.202393398E-1,8.608179688E-1,9.812965393E0
1.898755278E0,1.154536903E-1,8.656035662E-1,9.827322960E0
1.900991240E0,1.250249892E-1,8.506484628E-1,9.836894035E0
1.903226348E0,1.148554832E-1,8.321040869E-1,9.846465111E0
1.905462676E0,1.052841991E-1,8.464609981E-1,9.846465111E0
1.907699248E0,1.196411327E-1,8.512466550E-1,9.846465111E0
1.909935698E0,1.052841991E-1,8.321040869E-1,9.846465111E0
1.912169096E0,1.100698411E-1,8.273184299E-1,9.832108498E0
1.914397124E0,1.052841991E-1,8.225327730E-1,9.851250648E0
1.916645842E0,9.092725813E-2,8.416753411E-1,9.860821724E0
1.918880950E0,1.004985496E-1,8.416753411E-1,9.836894035E0
1.921120085E0,7.238288224E-2,8.518448472E-1,9.832108498E0
1.923352996E0,8.195417374E-2,8.566305041E-1,9.812965393E0
1.925589629E0,8.673982322E-2,8.614161611E-1,9.827322960E0
1.927825957E0,5.324030295E-2,8.620143533E-1,9.789037704E0
1.930062407E0,7.776673883E-2,8.662018180E-1,9.784252167E0
1.932300016E0,8.195417374E-2,8.566305041E-1,9.789037704E0
1.934539397E0,7.238288224E-2,8.614161611E-1,9.793823242E0
1.936771575E0,8.733802289E-2,8.614161611E-1,9.755537987E0
1.939008574E0,7.716853172E-2,8.566305041E-1,9.779465675E0
1.941242888E0,8.733802289E-2,8.614161611E-1,9.774680138E0
1.943480315E0,7.298108935E-2,8.901300430E-1,9.765109062E0
1.945716338E0,8.255238086E-2,8.901300430E-1,9.774680138E0
1.947952788E0,9.212367237E-2,8.709874153E-1,9.774680138E0
1.950189726E0,8.733802289E-2,8.997012973E-1,9.784252167E0
1.952423369E0,9.690931439E-2,8.709874153E-1,9.774680138E0
1.954649993E0,1.016949639E-1,8.614161611E-1,9.774680138E0
1.956897979E0,1.160518974E-1,8.751748800E-1,9.789037704E0
1.959134368E0,1.208375469E-1,8.656035662E-1,9.784850121E0
1.961373686E0,1.304088384E-1,8.703892231E-1,9.780064583E0
1.963607268E0,1.447657645E-1,8.745766878E-1,9.799206734E0
1.965843291E0,1.351944804E-1,8.841479421E-1,9.799206734E0
1.968079985E0,1.543370634E-1,8.889335990E-1,9.808777809E0
1.970317229E0,1.447657645E-1,8.985049129E-1,9.813564301E0
1.972552581E0,1.543370634E-1,8.937192559E-1,9.813564301E0
1.974788665E0,1.591227055E-1,8.793623447E-1,9.813564301E0
1.977024688E0,1.543370634E-1,8.841479421E-1,9.803992271E0
1.979261199E0,1.441675574E-1,8.650053740E-1,9.818349838E0
1.981497344E0,1.537388563E-1,8.506484628E-1,9.780064583E0
1.983733733E0,1.680957973E-1,8.506484628E-1,9.780064583E0
1.985970488E0,1.728814393E-1,8.410771489E-1,9.780064583E0
1.988206267E0,1.537388563E-1,8.506484628E-1,9.770493507E0
1.990438323E0,1.441675574E-1,8.177471161E-1,9.756135941E0
1.992678984E0,1.633101404E-1,8.267202377E-1,9.751948357E0
1.994915130E0,1.441675574E-1,8.033902049E-1,9.732208252E0
1.997152800E0,1.106680483E-1,8.183453679E-1,9.717850685E0
1.999387969E0,1.154536903E-1,8.039883971E-1,9.732208252E0
2.001624114E0,1.202393398E-1,7.992027402E-1,9.727422714E0
2.003860930E0,1.154536903E-1,7.944171429E-1,9.732208252E0
2.006097991E0,1.058823988E-1,7.944171429E-1,9.727422714E0
2.008333586E0,1.058823988E-1,7.944171429E-1,9.708279610E0
2.010570403E0,1.058823988E-1,7.800601721E-1,9.689137459E0
2.012805755E0,1.292124242E-1,7.698906660E-1,9.718449593E0
2.015042327E0,1.100698411E-1,7.896314859E-1,9.732208252E0
2.017276763E0,1.196411327E-1,7.752745152E-1,9.727422714E0
2.019508086E0,1.244267747E-1,7.752745152E-1,9.717850685E0
2.021751250E0,1.052841991E-1,7.896314859E-1,9.756135941E0
2.023988311E0,1.094716340E-1,7.609176040E-1,9.775279045E0
2.026225310E0,9.092725813E-2,7.704889178E-1,9.760921478E0
2.028459807E0,1.148554832E-1,7.704889178E-1,9.751350403E0
2.030696073E0,1.148554832E-1,7.848458290E-1,9.756135941E0
2.032932463E0,1.052841991E-1,7.944171429E-1,9.760921478E0
2.035169036E0,1.052841991E-1,7.896314859E-1,9.756135941E0
2.037401153E0,1.244267747E-1,7.986045480E-1,9.780064583E0
2.039626128E0,1.244267747E-1,7.842476368E-1,9.765707016E0
2.041878997E0,1.148554832E-1,7.938188910E-1,9.770493507E0
2.044114348E0,1.393819153E-1,8.081758618E-1,9.751350403E0
2.046354338E0,1.435693651E-1,7.794619799E-1,9.756135941E0
2.048586454E0,1.489532143E-1,7.986045480E-1,9.737591743E0
2.050823027E0,1.537388563E-1,8.033902049E-1,9.756733894E0
2.053059416E0,1.441675574E-1,7.986045480E-1,9.732806206E0
2.055292754E0,1.387837082E-1,7.890332937E-1,9.780064583E0
2.057520354E0,1.531406492E-1,7.932206988E-1,9.770493507E0
2.059769377E0,1.435693651E-1,8.075776696E-1,9.794421196E0
2.062005095E0,1.483550072E-1,7.932206988E-1,9.813564301E0
2.064245512E0,1.579262912E-1,8.075776696E-1,9.818349838E0
2.066472502E0,1.579262912E-1,8.075776696E-1,9.803992271E0
2.068695098E0,1.627119333E-1,8.171489239E-1,9.818349838E0
2.070949369E0,1.579262912E-1,8.171489239E-1,9.818349838E0
2.073183134E0,1.531406492E-1,8.219345808E-1,9.808777809E0
2.075415617E0,1.429711580E-1,7.932206988E-1,9.827920914E0
2.077660002E0,1.477568001E-1,7.932206988E-1,9.832706451E0
2.079895354E0,1.286142170E-1,7.842476368E-1,9.813564301E0
2.082132354E0,1.435693651E-1,8.123632669E-1,9.803992271E0
2.084352507E0,1.435693651E-1,7.932206988E-1,9.789635658E0
2.086592070E0,1.286142170E-1,7.890332937E-1,9.808777809E0
2.088839872E0,1.292124242E-1,7.842476368E-1,9.760921478E0
2.091079497E0,1.292124242E-1,7.938188910E-1,9.765707016E0
2.093316314E0,1.100698411E-1,7.896314859E-1,9.760921478E0
2.095550444E0,1.052841991E-1,7.944171429E-1,9.741779327E0
2.097785735E0,8.614161611E-2,7.752745152E-1,9.741779327E0
2.100021819E0,1.058823988E-1,8.039883971E-1,9.732208252E0
2.102258086E0,1.010967568E-1,8.183453679E-1,9.722636223E0
2.104491423E0,1.345962733E-1,7.986045480E-1,9.713065147E0
2.106718840E0,1.393819153E-1,7.938188910E-1,9.723235130E0
2.108967070E0,1.393819153E-1,8.033902049E-1,9.704092026E0
2.111203154E0,1.591227055E-1,8.129615188E-1,9.694520950E0
2.113441558E0,1.639083475E-1,8.081758618E-1,9.684949875E0
2.115676116E0,1.878365725E-1,8.123632669E-1,9.675976753E0
2.117912444E0,1.926222295E-1,8.219345808E-1,9.680762291E0
2.120149016E0,2.117647976E-1,8.171489239E-1,9.671191216E0
2.122381865E0,2.021935135E-1,8.171489239E-1,9.671191216E0
2.124606474E0,2.213360965E-1,8.219345808E-1,9.656833649E0
2.126845793E0,2.315055877E-1,8.213363886E-1,9.637691498E0
2.129094389E0,2.267199457E-1,8.356932998E-1,9.647262573E0
2.131331633E0,2.123630047E-1,8.458628058E-1,9.623334885E0
2.133558684E0,2.225325108E-1,8.554341197E-1,9.632905960E0
2.135802825E0,2.177468538E-1,8.602197170E-1,9.618548393E0
2.138039031E0,2.231307179E-1,8.841479421E-1,9.604191780E0
2.140277922E0,2.374876440E-1,8.883354068E-1,9.618548393E0
2.142511748E0,2.327020019E-1,9.080761671E-1,9.608977318E0
2.144747771E0,2.327020019E-1,9.032905698E-1,9.585049629E0
2.146984526E0,2.231307179E-1,9.128618240E-1,9.613762856E0
2.149221770E0,2.333002090E-1,9.176474810E-1,9.589835167E0
2.151456328E0,2.374876440E-1,9.170492887E-1,9.613762856E0
2.153689971E0,2.183450609E-1,9.176474810E-1,9.604191780E0
2.155928985E0,2.135594189E-1,9.128618240E-1,9.589835167E0
2.158165801E0,2.333002090E-1,9.320043921E-1,9.589835167E0
2.160402983E0,2.333002090E-1,9.320043921E-1,9.599406242E0
2.162638518E0,2.183450609E-1,8.985049129E-1,9.623334885E0
2.164871916E0,2.231307179E-1,8.985049129E-1,9.608977318E0
2.167097441E0,2.081755698E-1,8.889335990E-1,9.637691498E0
2.169335601E0,2.231307179E-1,9.122636318E-1,9.652048111E0
2.171584075E0,2.368894368E-1,8.835497499E-1,9.661619186E0
2.173822600E0,2.267199457E-1,8.835497499E-1,9.690333366E0
2.176059477E0,2.177468538E-1,8.979067206E-1,9.685547829E0
2.178292693E0,2.267199457E-1,8.787640929E-1,9.723833084E0
2.180528899E0,2.315055877E-1,8.644071817E-1,9.719047546E0
2.182762541E0,2.404786795E-1,8.452646136E-1,9.714262009E0
2.184990996E0,2.309073806E-1,8.500502706E-1,9.719047546E0
2.187234831E0,2.356930375E-1,8.356932998E-1,9.728618622E0
2.189458525E0,2.261217386E-1,8.356932998E-1,9.723833084E0
2.191699248E0,2.063809484E-1,8.165507317E-1,9.728020668E0
2.193946868E0,2.063809484E-1,8.021938205E-1,9.728020668E0
2.196186187E0,2.063809484E-1,7.926225066E-1,9.728020668E0
2.198422759E0,2.015953064E-1,7.932206988E-1,9.713663101E0
2.200656096E0,1.920240223E-1,7.836494446E-1,9.699306488E0
2.202893096E0,1.872383654E-1,7.740781307E-1,9.680164337E0
2.205128264E0,1.722832322E-1,7.651050687E-1,9.689735413E0
2.207364592E0,1.728814393E-1,7.746763229E-1,9.680164337E0
2.209600860E0,1.585244983E-1,7.794619799E-1,9.665806770E0
2.211837249E0,1.633101404E-1,7.651050687E-1,9.665806770E0
2.214073638E0,1.393819153E-1,7.609176040E-1,9.656235695E0
2.216307097E0,1.441675574E-1,7.752745152E-1,9.656235695E0
2.218531462E0,1.537388563E-1,7.651050687E-1,9.665806770E0
2.220771331E0,1.441675574E-1,7.746763229E-1,9.680164337E0
2.223019072E0,1.393819153E-1,7.794619799E-1,9.713663101E0
2.225259184E0,1.441675574E-1,7.938188910E-1,9.708877563E0
2.227494291E0,1.441675574E-1,8.033902049E-1,9.741779327E0
2.229727690E0,1.585244983E-1,8.075776696E-1,9.756733894E0
2.231964141E0,1.627119333E-1,8.027920127E-1,9.761520386E0
2.234200286E0,1.674975902E-1,7.980063558E-1,9.785448074E0
2.236437102E0,1.579262912E-1,8.027920127E-1,9.794421196E0
2.238673796E0,1.770688742E-1,7.884350419E-1,9.804591179E0
2.240909270E0,1.674975902E-1,8.027920127E-1,9.795019150E0
2.243145537E0,1.962114573E-1,8.021938205E-1,9.780662537E0
2.245381682E0,1.866401732E-1,8.021938205E-1,9.785448074E0
2.247618315E0,1.962114573E-1,8.069794178E-1,9.785448074E0
2.249854766E0,1.968096644E-1,8.117650747E-1,9.756733894E0
2.252087614E0,2.021935135E-1,8.171489239E-1,9.704689980E0
2.254312713E0,1.968096644E-1,7.788637877E-1,9.699904442E0
2.256554229E0,1.776670814E-1,7.794619799E-1,9.670592308E0
2.258799956E0,1.776670814E-1,7.746763229E-1,9.652048111E0
2.261039213E0,1.543370634E-1,7.890332937E-1,9.632308006E0
2.263274565E0,1.543370634E-1,8.039883971E-1,9.622735977E0
2.265508635E0,1.399801224E-1,7.992027402E-1,9.608379364E0
2.267745146E0,1.262213886E-1,7.950153351E-1,9.579665184E0
2.269981352E0,1.357926875E-1,8.135597110E-1,9.589237213E0
2.272215239E0,1.166501045E-1,7.998009920E-1,9.584450722E0
2.274443450E0,1.064806059E-1,7.854440212E-1,9.589237213E0
2.276690459E0,9.212367237E-2,7.950153351E-1,9.589237213E0
2.278926299E0,9.212367237E-2,7.950153351E-1,9.622138023E0
2.281165495E0,9.212367237E-2,8.141579032E-1,9.641280174E0
2.283398039E0,9.152546525E-2,7.950153351E-1,9.665208817E0
2.285632353E0,1.058823988E-1,8.039883971E-1,9.679565430E0
2.287873381E0,9.631111473E-2,8.039883971E-1,9.708279610E0
2.290108550E0,8.195417374E-2,8.039883971E-1,9.750752449E0
2.292346464E0,8.135596663E-2,7.848458290E-1,9.784252167E0
2.294580718E0,1.052841991E-1,8.129615188E-1,9.798608780E0
2.296817961E0,1.046859920E-1,7.938188910E-1,9.856036186E0
2.299053191E0,8.015955985E-2,7.746763229E-1,9.856036186E0
2.301289336E0,8.494520187E-2,7.890332937E-1,9.884750366E0
2.303525664E0,8.015955985E-2,7.938188910E-1,9.917651176E0
2.305761992E0,9.930214286E-2,7.932206988E-1,9.923035622E0
2.307998930E0,1.088734269E-1,7.980063558E-1,9.927821159E0
2.310235930E0,1.136590764E-1,7.932206988E-1,9.932606697E0
2.312471343E0,1.328016520E-1,7.884350419E-1,9.913464546E0
2.314707610E0,1.232303679E-1,8.027920127E-1,9.927821159E0
2.316943633E0,1.423729509E-1,7.782655358E-1,9.918250084E0
2.319179961E0,1.519442350E-1,7.878368497E-1,9.894919395E0
2.321413359E0,1.615155339E-1,7.830511928E-1,9.870991707E0
2.323640898E0,1.525424421E-1,7.788637877E-1,9.851848602E0
2.325889311E0,1.429711580E-1,8.075776696E-1,9.861420631E0
2.328126616E0,1.674975902E-1,8.117650747E-1,9.837491989E0
2.330364776E0,1.764706671E-1,8.069794178E-1,9.842277527E0
2.332593169E0,1.770688742E-1,8.213363886E-1,9.842277527E0
2.334815642E0,1.770688742E-1,8.261220455E-1,9.813564301E0
2.337070342E0,1.674975902E-1,8.123632669E-1,9.799206734E0
2.339306975E0,1.866401732E-1,8.261220455E-1,9.823135376E0
2.341547636E0,1.914258152E-1,8.261220455E-1,9.823135376E0
2.343779936E0,1.962114573E-1,8.213363886E-1,9.828518867E0
2.346016875E0,2.009970993E-1,8.213363886E-1,9.809376717E0
2.348252043E0,2.105683982E-1,8.261220455E-1,9.809376717E0
2.350489654E0,2.153540403E-1,8.255237937E-1,9.828518867E0
2.352729155E0,2.009970993E-1,8.213363886E-1,9.823733330E0
2.354958586E0,2.015953064E-1,8.404789567E-1,9.818947792E0
2.357197295E0,2.201396823E-1,8.255237937E-1,9.857233047E0
2.359432158E0,2.105683982E-1,8.303094506E-1,9.828518867E0
2.361671171E0,1.962114573E-1,8.309076428E-1,9.842277527E0
2.363907622E0,1.872383654E-1,8.404789567E-1,9.818349838E0
2.366143218E0,1.914258152E-1,8.452646136E-1,9.861420631E0
2.368379912E0,1.770688742E-1,8.356932998E-1,9.880562782E0
2.370612090E0,1.824527234E-1,8.548358679E-1,9.847063065E0
2.372836882E0,2.009970993E-1,8.350951076E-1,9.852447510E0
2.375072783E0,1.914258152E-1,8.404789567E-1,9.856635094E0
2.377312346E0,2.201396823E-1,8.350951076E-1,9.833304405E0
2.379563750E0,2.009970993E-1,8.165507317E-1,9.828518867E0
2.381800688E0,1.962114573E-1,8.261220455E-1,9.842875481E0
2.384036222E0,1.914258152E-1,8.165507317E-1,9.847063065E0
2.386269316E0,1.770688742E-1,8.309076428E-1,9.856635094E0
2.388502593E0,1.818545163E-1,8.069794178E-1,9.842277527E0
2.390730498E0,1.627119333E-1,8.267202377E-1,9.837491989E0
2.392978362E0,1.722832322E-1,8.165507317E-1,9.847063065E0
2.395214690E0,1.668993831E-1,8.117650747E-1,9.856635094E0
2.397454131E0,1.627119333E-1,8.267202377E-1,9.842277527E0
2.399688323E0,1.573280841E-1,8.069794178E-1,9.866206169E0
2.401923674E0,1.668993831E-1,8.069794178E-1,9.885348320E0
2.404160002E0,1.668993831E-1,8.069794178E-1,9.880562782E0
2.406396026E0,1.764706671E-1,8.309076428E-1,9.890133858E0
2.408632415E0,1.764706671E-1,8.165507317E-1,9.880562782E0
2.410868865E0,1.956132501E-1,8.255237937E-1,9.890133858E0
2.413104766E0,1.908276081E-1,8.117650747E-1,9.866206169E0
2.415341643E0,1.908276081E-1,8.165507317E-1,9.866206169E0
2.417575652E0,2.057827413E-1,8.111668825E-1,9.852447510E0
2.419802092E0,2.009970993E-1,8.021938205E-1,9.818947792E0
2.422048125E0,1.860419661E-1,7.926225066E-1,9.828518867E0
2.424278411E0,2.051845491E-1,7.686942816E-1,9.828518867E0
2.426525970E0,2.003988922E-1,7.782655358E-1,9.799804688E0
2.428759124E0,2.201396823E-1,7.926225066E-1,9.775876999E0
2.430997466E0,2.249253243E-1,7.728816867E-1,9.781260490E0
2.433232268E0,2.201396823E-1,7.782655358E-1,9.747760773E0
2.435469390E0,2.057827413E-1,7.830511928E-1,9.751948357E0
2.437704924E0,1.920240223E-1,7.836494446E-1,9.718449593E0
2.439941741E0,1.920240223E-1,7.740781307E-1,9.704092026E0
2.442174223E0,1.920240223E-1,7.836494446E-1,9.694520950E0
2.444402129E0,1.776670814E-1,7.746763229E-1,9.670592308E0
2.446649443E0,1.920240223E-1,7.740781307E-1,9.642477036E0
2.448885771E0,1.830509305E-1,7.890332937E-1,9.632905960E0
2.451125395E0,1.926222295E-1,7.788637877E-1,9.637691498E0
2.453356413E0,2.021935135E-1,7.980063558E-1,9.623334885E0
2.455579192E0,1.782652885E-1,7.986045480E-1,9.628120422E0
2.457816497E0,1.974078715E-1,7.836494446E-1,9.618548393E0
2.460067473E0,2.069791555E-1,8.075776696E-1,9.623334885E0
2.462306791E0,2.117647976E-1,8.027920127E-1,9.623334885E0
2.464543791E0,2.117647976E-1,7.980063558E-1,9.642477036E0
2.466776396E0,2.117647976E-1,7.980063558E-1,9.632905960E0
2.469013091E0,2.117647976E-1,8.027920127E-1,9.656833649E0
2.471247526E0,2.021935135E-1,8.075776696E-1,9.652048111E0
2.473474211E0,2.069791555E-1,8.315058947E-1,9.685547829E0
2.475721831E0,1.830509305E-1,8.315058947E-1,9.680164337E0
2.477957976E0,2.117647976E-1,8.356932998E-1,9.690333366E0
2.480197051E0,1.974078715E-1,8.219345808E-1,9.704092026E0
2.482430938E0,1.782652885E-1,8.171489239E-1,9.699306488E0
2.484663786E0,1.968096644E-1,7.932206988E-1,9.704092026E0
2.486891753E0,1.872383654E-1,7.980063558E-1,9.723235130E0
2.489140654E0,1.872383654E-1,8.123632669E-1,9.704092026E0
2.491373259E0,1.543370634E-1,8.129615188E-1,9.680164337E0
2.493603910E0,1.537388563E-1,7.986045480E-1,9.699306488E0
2.495848479E0,1.680957973E-1,7.986045480E-1,9.704092026E0
2.498085051E0,1.585244983E-1,8.129615188E-1,9.728020668E0
2.500324125E0,1.633101404E-1,7.986045480E-1,9.713663101E0
2.502557097E0,1.728814393E-1,7.842476368E-1,9.680164337E0
2.504793791E0,1.633101404E-1,8.081758618E-1,9.699306488E0
2.507031340E0,1.728814393E-1,7.890332937E-1,9.689735413E0
2.509266997E0,1.776670814E-1,7.884350419E-1,9.684949875E0
2.511503813E0,1.585244983E-1,7.938188910E-1,9.713663101E0
2.513738799E0,1.680957973E-1,8.075776696E-1,9.708877563E0
2.515975371E0,1.393819153E-1,8.081758618E-1,9.704092026E0
2.518211455E0,1.447657645E-1,8.177471161E-1,9.684949875E0
2.520444182E0,1.441675574E-1,8.033902049E-1,9.684949875E0
2.522666960E0,1.585244983E-1,7.986045480E-1,9.694520950E0
2.524909453E0,1.633101404E-1,8.033902049E-1,9.713663101E0
2.527156829E0,1.543370634E-1,8.033902049E-1,9.670592308E0
2.529396758E0,1.633101404E-1,7.890332937E-1,9.670592308E0
2.531632231E0,1.824527234E-1,7.836494446E-1,9.680164337E0
2.533865813E0,1.489532143E-1,7.986045480E-1,9.680164337E0
2.536102080E0,1.543370634E-1,7.938188910E-1,9.661021233E0
2.538338225E0,1.591227055E-1,8.033902049E-1,9.661021233E0
2.540575041E0,1.585244983E-1,7.890332937E-1,9.656235695E0
2.542812041E0,1.591227055E-1,7.986045480E-1,9.670592308E0
2.545047209E0,1.441675574E-1,7.794619799E-1,9.680164337E0
2.547283538E0,1.591227055E-1,7.938188910E-1,9.661021233E0
2.549515410E0,1.351944804E-1,8.039883971E-1,9.656235695E0
2.551738616E0,1.495514214E-1,8.225327730E-1,9.656235695E0
2.553992583E0,1.495514214E-1,8.177471161E-1,9.656235695E0
2.556229033E0,1.639083475E-1,8.225327730E-1,9.661021233E0
2.558469816E0,1.639083475E-1,8.129615188E-1,9.656235695E0
2.560702483E0,1.543370634E-1,8.225327730E-1,9.656235695E0
2.562937773E0,1.399801224E-1,8.135597110E-1,9.665806770E0
2.565174102E0,1.399801224E-1,8.273184299E-1,9.670592308E0
2.567409942E0,1.447657645E-1,8.321040869E-1,9.665806770E0
2.569646453E0,1.351944804E-1,8.231309652E-1,9.670592308E0
2.571882659E0,1.304088384E-1,8.135597110E-1,9.689137459E0
2.574119536E0,1.160518974E-1,8.374879360E-1,9.703494072E0
2.576356108E0,1.160518974E-1,8.327022791E-1,9.713065147E0
2.578593230E0,1.064806059E-1,8.470591903E-1,9.703494072E0
2.580828642E0,1.208375469E-1,8.327022791E-1,9.708279610E0
2.583065459E0,1.064806059E-1,8.566305041E-1,9.717850685E0
2.585300567E0,1.160518974E-1,8.422735929E-1,9.713065147E0
2.587534148E0,1.058823988E-1,8.279166222E-1,9.727422714E0
2.589761260E0,1.016949639E-1,8.518448472E-1,9.713065147E0
2.592008757E0,9.152546525E-2,8.231309652E-1,9.722636223E0
2.594243010E0,1.106680483E-1,8.087740541E-1,9.722636223E0
2.596486479E0,1.016949639E-1,8.279166222E-1,9.717850685E0
2.598718840E0,7.716853172E-2,8.087740541E-1,9.755537987E0
2.600955778E0,9.092725813E-2,7.992027402E-1,9.746564865E0
2.603191192E0,7.716853172E-2,8.231309652E-1,9.750752449E0
2.605427520E0,7.178468257E-2,8.135597110E-1,9.774680138E0
2.607663909E0,8.614161611E-2,7.992027402E-1,9.784252167E0
2.609900237E0,9.571290761E-2,7.896314859E-1,9.760921478E0
2.612134123E0,9.571290761E-2,8.039883971E-1,9.784252167E0
2.614362151E0,1.148554832E-1,8.177471161E-1,9.794421196E0
2.616606352E0,9.152546525E-2,8.279166222E-1,9.784252167E0
2.618834014E0,1.148554832E-1,8.129615188E-1,9.784850121E0
2.621084562E0,1.202393398E-1,8.177471161E-1,9.770493507E0
2.623318206E0,1.250249892E-1,8.321040869E-1,9.770493507E0
2.625557402E0,1.202393398E-1,8.321040869E-1,9.751350403E0
2.627790862E0,1.250249892E-1,8.464609981E-1,9.784850121E0
2.630027434E0,1.208375469E-1,8.608179688E-1,9.780064583E0
2.632261443E0,1.202393398E-1,8.368897438E-1,9.780064583E0
2.634487578E0,1.010967568E-1,8.470591903E-1,9.784252167E0
2.636735869E0,7.238288224E-2,8.422735929E-1,9.765109062E0
2.638971952E0,5.383851007E-2,8.380861282E-1,9.717252731E0
2.641211638E0,7.238288224E-2,7.998009920E-1,9.698708534E0
2.643445098E0,1.010967568E-1,7.896314859E-1,9.708279610E0
2.645680999E0,9.571290761E-2,7.513462901E-1,9.703494072E0
2.647917876E0,1.100698411E-1,7.848458290E-1,9.751350403E0
2.650155120E0,1.244267747E-1,8.033902049E-1,9.756135941E0
2.652388395E0,1.154536903E-1,8.464609981E-1,9.803992271E0
2.654614592E0,1.106680483E-1,8.608179688E-1,9.827322960E0
2.656848844E0,1.058823988E-1,8.608179688E-1,9.832108498E0
2.659098906E0,9.152546525E-2,8.656035662E-1,9.856036186E0
2.661337615E0,1.004985496E-1,8.656035662E-1,9.879964828E0
2.663572051E0,1.010967568E-1,8.560323119E-1,9.846465111E0
2.665793608E0,9.152546525E-2,8.422735929E-1,9.822537422E0
2.668033782E0,9.631111473E-2,8.422735929E-1,9.808179855E0
2.670280852E0,1.154536903E-1,8.368897438E-1,9.818349838E0
2.672519865E0,9.631111473E-2,8.279166222E-1,9.798608780E0
2.674755827E0,9.571290761E-2,8.135597110E-1,9.775279045E0
2.676989348E0,1.058823988E-1,8.183453679E-1,9.751350403E0
2.679226104E0,7.716853172E-2,7.950153351E-1,9.732208252E0
2.681462614E0,6.759724021E-2,8.189435601E-1,9.731609344E0
2.683698271E0,7.238288224E-2,8.093722463E-1,9.741181374E0
2.685924650E0,5.324030295E-2,8.333004713E-1,9.750752449E0
2.688175444E0,5.802594870E-2,8.093722463E-1,9.745966911E0
2.690406950E0,4.845465720E-2,8.045865893E-1,9.736394882E0
2.692643706E0,6.759724021E-2,8.285148144E-1,9.731609344E0
2.694867216E0,6.281159073E-2,8.333004713E-1,9.736394882E0
2.697116484E0,7.238288224E-2,8.279166222E-1,9.765109062E0
2.699352629E0,7.238288224E-2,8.333004713E-1,9.736394882E0
2.701592376E0,9.152546525E-2,8.183453679E-1,9.760921478E0
2.703826201E0,9.631111473E-2,8.374879360E-1,9.775279045E0
2.706061553E0,9.690931439E-2,8.518448472E-1,9.756135941E0
2.708297637E0,1.058823988E-1,8.374879360E-1,9.746564865E0
2.710533965E0,1.106680483E-1,8.416753411E-1,9.765707016E0
2.712770354E0,1.256231815E-1,8.416753411E-1,9.751350403E0
2.715006926E0,1.393819153E-1,8.464609981E-1,9.775279045E0
2.717243010E0,1.639083475E-1,8.602197170E-1,9.756733894E0
2.719479826E0,1.351944804E-1,8.608179688E-1,9.756135941E0
2.721716155E0,1.639083475E-1,8.697910309E-1,9.751948357E0
2.723950591E0,1.782652885E-1,8.602197170E-1,9.761520386E0
2.726189482E0,1.639083475E-1,8.458628058E-1,9.756733894E0
2.728424407E0,1.830509305E-1,8.602197170E-1,9.756733894E0
2.730661467E0,1.926222295E-1,8.500502706E-1,9.756733894E0
2.732894255E0,1.980060786E-1,8.835497499E-1,9.756733894E0
2.735121672E0,1.926222295E-1,8.739784956E-1,9.747162819E0
2.737370207E0,2.027917206E-1,8.835497499E-1,9.742377281E0
2.739607207E0,2.075773627E-1,8.787640929E-1,9.723235130E0
2.741845550E0,2.075773627E-1,8.835497499E-1,9.713663101E0
2.744078704E0,1.980060786E-1,8.745766878E-1,9.708877563E0
2.746315032E0,2.033899277E-1,8.841479421E-1,9.671191216E0
2.748549712E0,2.171486616E-1,8.596215248E-1,9.680762291E0
2.750780364E0,2.075773627E-1,8.793623447E-1,9.689735413E0
2.753023955E0,2.033899277E-1,8.841479421E-1,9.680164337E0
2.755260588E0,2.081755698E-1,8.841479421E-1,9.680762291E0
2.757499724E0,2.464607358E-1,8.787640929E-1,9.661619186E0
2.759733000E0,2.171486616E-1,8.548358679E-1,9.690333366E0
2.761969329E0,2.362912297E-1,8.691928387E-1,9.685547829E0
2.764205291E0,2.315055877E-1,8.548358679E-1,9.699904442E0
2.766441680E0,2.213360965E-1,8.500502706E-1,9.733404160E0
2.768678008E0,2.213360965E-1,8.452646136E-1,9.733404160E0
2.770914397E0,2.111666054E-1,8.309076428E-1,9.742377281E0
2.773151274E0,2.165504545E-1,8.548358679E-1,9.737591743E0
2.775388335E0,2.117647976E-1,8.404789567E-1,9.751948357E0
2.777623625E0,1.968096644E-1,8.356932998E-1,9.756733894E0
2.779859709E0,2.015953064E-1,8.165507317E-1,9.771091461E0
2.782092986E0,1.722832322E-1,8.027920127E-1,9.761520386E0
2.784320403E0,1.585244983E-1,8.123632669E-1,9.770493507E0
2.786564665E0,1.387837082E-1,7.938188910E-1,9.760921478E0
2.788787871E0,1.387837082E-1,7.986045480E-1,9.775279045E0
2.791044646E0,1.202393398E-1,8.081758618E-1,9.760921478E0
2.793278838E0,1.052841991E-1,7.944171429E-1,9.780064583E0
2.795518522E0,1.058823988E-1,8.135597110E-1,9.760921478E0
2.797751311E0,9.571290761E-2,7.896314859E-1,9.775279045E0
2.799986358E0,1.100698411E-1,7.986045480E-1,9.789635658E0
2.802222075E0,1.052841991E-1,8.039883971E-1,9.765707016E0
2.804452666E0,1.100698411E-1,7.842476368E-1,9.780064583E0
2.806684661E0,1.052841991E-1,8.033902049E-1,9.780064583E0
2.808932158E0,1.244267747E-1,8.081758618E-1,9.803992271E0
2.811166533E0,1.100698411E-1,8.225327730E-1,9.794421196E0
2.813393644E0,1.100698411E-1,8.129615188E-1,9.789635658E0
2.815638334E0,1.244267747E-1,8.129615188E-1,9.803992271E0
2.817867522E0,1.387837082E-1,8.219345808E-1,9.818349838E0
2.820116729E0,1.148554832E-1,8.225327730E-1,9.817750931E0
2.822349639E0,1.339980662E-1,8.315058947E-1,9.842277527E0
2.824588286E0,1.435693651E-1,8.362914920E-1,9.818349838E0
2.826823332E0,1.441675574E-1,8.506484628E-1,9.832706451E0
2.829059661E0,1.483550072E-1,8.410771489E-1,9.842277527E0
2.831292021E0,1.489532143E-1,8.506484628E-1,9.794421196E0
2.833518950E0,1.441675574E-1,8.650053740E-1,9.813564301E0
2.835764372E0,1.585244983E-1,8.602197170E-1,9.789635658E0
2.837991790E0,1.633101404E-1,8.650053740E-1,9.808777809E0
2.840243316E0,1.591227055E-1,8.697910309E-1,9.784850121E0
2.842476348E0,1.447657645E-1,8.512466550E-1,9.765707016E0
2.844715971E0,1.591227055E-1,8.554341197E-1,9.775279045E0
2.846949980E0,1.591227055E-1,8.554341197E-1,9.751350403E0
2.849185332E0,1.591227055E-1,8.650053740E-1,9.751350403E0
2.851418486E0,1.782652885E-1,8.697910309E-1,9.742377281E0
2.853643217E0,1.878365725E-1,8.506484628E-1,9.737591743E0
2.855883818E0,1.878365725E-1,8.506484628E-1,9.718449593E0
2.858130461E0,1.926222295E-1,8.554341197E-1,9.737591743E0
2.860369781E0,1.878365725E-1,8.554341197E-1,9.723235130E0
2.862606230E0,2.069791555E-1,8.356932998E-1,9.713663101E0
2.864842070E0,1.878365725E-1,8.458628058E-1,9.699306488E0
2.867081694E0,1.926222295E-1,8.362914920E-1,9.675378799E0
2.869310332E0,2.123630047E-1,8.650053740E-1,9.656833649E0
2.871533476E0,1.932204217E-1,8.650053740E-1,9.652048111E0
2.873768767E0,2.027917206E-1,8.650053740E-1,9.661619186E0
2.876009307E0,2.081755698E-1,8.697910309E-1,9.613762856E0
2.878260345E0,1.794617027E-1,8.656035662E-1,9.608977318E0
2.880496977E0,1.890329868E-1,8.847461939E-1,9.618548393E0
2.882733366E0,1.698904037E-1,8.799605370E-1,9.603593826E0
2.884963225E0,1.842473447E-1,8.799605370E-1,9.613762856E0
2.887202727E0,1.651047617E-1,8.656035662E-1,9.637093544E0
2.889438689E0,1.794617027E-1,8.799605370E-1,9.622735977E0
2.891675932E0,1.740778536E-1,8.751748800E-1,9.670592308E0
2.893911650E0,1.645065546E-1,8.656035662E-1,9.694520950E0
2.896147795E0,1.740778536E-1,8.745766878E-1,9.694520950E0
2.898384673E0,1.782652885E-1,8.602197170E-1,9.742377281E0
2.900621672E0,1.597209126E-1,8.793623447E-1,9.732208252E0
2.902857024E0,1.926222295E-1,8.596215248E-1,9.756733894E0
2.905093047E0,1.776670814E-1,8.554341197E-1,9.784850121E0
2.907329131E0,1.872383654E-1,8.596215248E-1,9.790233612E0
2.909565703E0,1.878365725E-1,8.691928387E-1,9.785448074E0
2.911802092E0,1.920240223E-1,8.452646136E-1,9.771091461E0
2.914038420E0,1.920240223E-1,8.404789567E-1,9.795019150E0
2.916274993E0,1.824527234E-1,8.356932998E-1,9.799804688E0
2.918512053E0,1.968096644E-1,8.452646136E-1,9.814162254E0
2.920745147E0,2.015953064E-1,8.644071817E-1,9.804591179E0
2.922974639E0,2.159522474E-1,8.542376757E-1,9.814162254E0
2.925219512E0,2.207378894E-1,8.398807645E-1,9.809376717E0
2.927456145E0,2.213360965E-1,8.781659007E-1,9.795019150E0
2.929694914E0,2.213360965E-1,8.638089895E-1,9.790233612E0
2.931928801E0,2.452643216E-1,8.590233326E-1,9.757332802E0
2.934165434E0,2.356930375E-1,8.542376757E-1,9.766305923E0
2.936402617E0,2.596212626E-1,8.590233326E-1,9.757332802E0
2.938638091E0,2.650051117E-1,8.542376757E-1,9.699904442E0
2.940875334E0,2.458625287E-1,8.548358679E-1,9.680762291E0
2.943110076E0,2.602194548E-1,8.638089895E-1,9.662218094E0
2.945346526E0,2.697907388E-1,8.590233326E-1,9.657432556E0
2.947582793E0,2.560320199E-1,8.596215248E-1,9.623932838E0
2.949818449E0,2.464607358E-1,8.644071817E-1,9.609575272E0
2.952048552E0,2.225325108E-1,8.554341197E-1,9.604191780E0
2.954278655E0,2.129612118E-1,8.458628058E-1,9.589835167E0
2.956528350E0,2.033899277E-1,8.464609981E-1,9.561120987E0
2.958765471E0,1.842473447E-1,8.464609981E-1,9.541978836E0
2.961004302E0,1.698904037E-1,8.279166222E-1,9.561120987E0
2.963236785E0,1.501496136E-1,8.039883971E-1,9.561120987E0
2.965473235E0,1.453639716E-1,7.992027402E-1,9.575477600E0
2.967709807E0,1.112662554E-1,7.998009920E-1,9.598808289E0
2.969946684E0,9.212367237E-2,7.854440212E-1,9.589237213E0
2.972180510E0,9.152546525E-2,7.902296782E-1,9.660423279E0
2.974406829E0,7.716853172E-2,7.758727670E-1,9.679565430E0
2.976655059E0,4.785645381E-2,7.716853023E-1,9.693324089E0
2.978891143E0,5.264209956E-2,7.710871100E-1,9.755537987E0
2.981130522E0,3.290131316E-2,7.710871100E-1,9.779465675E0
2.983364043E0,1.316052489E-2,7.477570772E-1,9.821938515E0
2.985600127E0,2.811566554E-2,7.615157962E-1,9.817152977E0
2.987836760E0,8.374879137E-3,7.381857634E-1,9.845867157E0
2.990073821E0,-5.982056726E-3,7.525427341E-1,9.860223770E0
2.992306425E0,-1.794616925E-3,7.423732281E-1,9.884152412E0
2.994533599E0,-1.794616925E-3,7.519445419E-1,9.879366875E0
2.996781829E0,-1.076770201E-2,7.429714203E-1,9.850652695E0
2.999018096E0,-2.093719877E-2,7.477570772E-1,9.873982430E0
3.001257414E0,7.776673418E-3,7.423732281E-1,9.865009308E0
3.003490508E0,3.589233849E-3,7.429714203E-1,9.841081619E0
3.005727385E0,-1.196411322E-3,7.381857634E-1,9.788438797E0
3.007964507E0,2.333002165E-2,7.429714203E-1,9.774680138E0
3.010200346E0,4.187439568E-3,7.525427341E-1,9.745368004E0
3.012437102E0,1.914258115E-2,7.525427341E-1,9.707681656E0
3.014672087E0,4.785645381E-2,7.429714203E-1,9.698110580E0
3.016908171E0,3.828516230E-2,7.573283911E-1,9.659825325E0
3.019144561E0,5.264209956E-2,7.381857634E-1,9.646066666E0
3.021381194E0,5.742774159E-2,7.429714203E-1,9.655637741E0
3.023618071E0,5.802594870E-2,7.668996453E-1,9.612566948E0
3.025854827E0,6.281159073E-2,7.716853023E-1,9.622138023E0
3.028090178E0,6.759724021E-2,7.764709592E-1,9.631709099E0
3.030326445E0,6.759724021E-2,7.860422134E-1,9.650852203E0
3.032562590E0,9.152546525E-2,7.854440212E-1,9.641280174E0
3.034796416E0,1.016949639E-1,7.902296782E-1,9.631709099E0
3.037024504E0,9.690931439E-2,7.998009920E-1,9.646066666E0
3.039271819E0,1.106680483E-1,7.944171429E-1,9.669994354E0
3.041508391E0,1.112662554E-1,8.039883971E-1,9.660423279E0
3.043748198E0,1.208375469E-1,8.039883971E-1,9.669994354E0
3.045980742E0,1.250249892E-1,8.039883971E-1,9.693922997E0
3.048216826E0,1.112662554E-1,8.279166222E-1,9.717850685E0
3.050452909E0,1.100698411E-1,7.992027402E-1,9.746564865E0
3.052689482E0,1.106680483E-1,8.231309652E-1,9.741779327E0
3.054921721E0,1.106680483E-1,8.231309652E-1,9.746564865E0
3.057145598E0,1.052841991E-1,7.992027402E-1,9.770493507E0
3.059398772E0,1.202393398E-1,8.033902049E-1,9.751350403E0
3.061635832E0,1.148554832E-1,8.081758618E-1,9.775279045E0
3.063872343E0,1.148554832E-1,7.986045480E-1,9.784850121E0
3.066095549E0,1.148554832E-1,7.986045480E-1,9.756135941E0
3.068343535E0,1.196411327E-1,7.842476368E-1,9.770493507E0
3.070579924E0,1.004985496E-1,7.896314859E-1,9.780064583E0
3.072816558E0,1.052841991E-1,7.896314859E-1,9.770493507E0
3.075041106E0,9.092725813E-2,7.848458290E-1,9.774680138E0
3.077289458E0,1.004985496E-1,7.800601721E-1,9.770493507E0
3.079526396E0,8.135596663E-2,7.896314859E-1,9.755537987E0
3.081761748E0,8.614161611E-2,7.944171429E-1,9.779465675E0
3.083987029E0,1.052841991E-1,7.944171429E-1,9.775279045E0
3.086233672E0,8.614161611E-2,7.848458290E-1,9.774680138E0
3.088470549E0,7.657032460E-2,7.800601721E-1,9.774680138E0
3.090709562E0,9.571290761E-2,7.896314859E-1,9.789037704E0
3.092943267E0,1.100698411E-1,7.938188910E-1,9.775279045E0
3.095179778E0,1.010967568E-1,8.183453679E-1,9.770493507E0
3.097416838E0,1.196411327E-1,8.129615188E-1,9.799206734E0
3.099652129E0,1.004985496E-1,8.081758618E-1,9.793823242E0
3.101888213E0,1.292124242E-1,7.938188910E-1,9.770493507E0
3.104124297E0,1.483550072E-1,8.033902049E-1,9.760921478E0
3.106360869E0,1.537388563E-1,8.171489239E-1,9.756135941E0
3.108597258E0,1.728814393E-1,8.219345808E-1,9.751948357E0
3.110833647E0,1.585244983E-1,8.123632669E-1,9.751948357E0
3.113070403E0,1.585244983E-1,8.267202377E-1,9.751948357E0
3.115307219E0,1.776670814E-1,8.315058947E-1,9.751948357E0
3.117542571E0,1.686939895E-1,8.458628058E-1,9.756733894E0
3.119775847E0,1.926222295E-1,8.500502706E-1,9.766305923E0
3.122000822E0,2.021935135E-1,8.452646136E-1,9.728020668E0
3.124242766E0,2.117647976E-1,8.548358679E-1,9.751948357E0
3.126487822E0,2.075773627E-1,8.739784956E-1,9.728020668E0
3.128726958E0,2.165504545E-1,8.644071817E-1,9.732806206E0
3.130962981E0,2.117647976E-1,8.596215248E-1,9.732806206E0
3.133197783E0,1.830509305E-1,8.745766878E-1,9.751948357E0
3.135432952E0,1.830509305E-1,8.506484628E-1,9.756733894E0
3.137669219E0,1.782652885E-1,8.554341197E-1,9.766305923E0
3.139905303E0,1.728814393E-1,8.650053740E-1,9.799206734E0
3.142138945E0,1.776670814E-1,8.500502706E-1,9.799206734E0
3.144366301E0,1.591227055E-1,8.697910309E-1,9.799206734E0
3.146614592E0,1.728814393E-1,8.691928387E-1,9.813564301E0
3.148848234E0,1.345962733E-1,8.602197170E-1,9.837491989E0
3.151079497E0,1.393819153E-1,8.745766878E-1,9.837491989E0
3.153323882E0,1.339980662E-1,8.554341197E-1,9.851250648E0
3.155561186E0,1.196411327E-1,8.458628058E-1,9.865608215E0
3.157799101E0,1.100698411E-1,8.608179688E-1,9.870393753E0
3.160032317E0,1.148554832E-1,8.697910309E-1,9.879964828E0
3.162265654E0,1.196411327E-1,8.602197170E-1,9.884750366E0
3.164490386E0,1.435693651E-1,8.410771489E-1,9.879964828E0
3.166729643E0,1.292124242E-1,8.362914920E-1,9.879964828E0
3.168978789E0,1.387837082E-1,8.458628058E-1,9.879964828E0
3.171212187E0,1.579262912E-1,8.213363886E-1,9.861420631E0
3.173434783E0,1.585244983E-1,8.458628058E-1,9.823135376E0
3.175686553E0,1.728814393E-1,8.267202377E-1,9.789635658E0
3.177922942E0,1.722832322E-1,8.123632669E-1,9.780662537E0
3.180163847E0,2.159522474E-1,8.356932998E-1,9.775876999E0
3.182395293E0,2.111666054E-1,8.165507317E-1,9.751948357E0
3.184629179E0,2.213360965E-1,8.500502706E-1,9.751948357E0
3.186854216E0,2.165504545E-1,8.548358679E-1,9.732806206E0
3.189092375E0,2.261217386E-1,8.644071817E-1,9.738189697E0
3.191337797E0,2.309073806E-1,8.638089895E-1,9.761520386E0
3.193568449E0,2.267199457E-1,8.883354068E-1,9.732806206E0
3.195816314E0,2.554338276E-1,8.877372146E-1,9.747760773E0
3.198049651E0,2.506481707E-1,9.068797827E-1,9.747760773E0
3.200288847E0,2.362912297E-1,9.068797827E-1,9.742975235E0
3.202519926E0,2.368894368E-1,9.260223508E-1,9.742377281E0
3.204748137E0,2.560320199E-1,9.260223508E-1,9.762118340E0
3.206994963E0,2.464607358E-1,9.355936646E-1,9.771091461E0
3.209231291E0,2.416750938E-1,9.403793216E-1,9.775876999E0
3.211470488E0,2.362912297E-1,9.068797827E-1,9.780662537E0
3.213703887E0,2.697907388E-1,9.206385016E-1,9.805189133E0
3.215940215E0,2.697907388E-1,9.110672474E-1,9.814760208E0
3.218177214E0,2.697907388E-1,9.206385016E-1,9.790832520E0
3.220412932E0,2.596212626E-1,8.967102766E-1,9.800403595E0
3.222650237E0,2.787638307E-1,8.775677085E-1,9.776474953E0
3.224885344E0,2.548356056E-1,8.679963946E-1,9.809974670E0
3.227122710E0,2.596212626E-1,8.632107973E-1,9.800403595E0
3.229357940E0,2.309073806E-1,8.877372146E-1,9.785448074E0
3.231594329E0,2.356930375E-1,8.638089895E-1,9.795019150E0
3.233830413E0,2.356930375E-1,8.685946465E-1,9.795019150E0
3.236066924E0,2.063809484E-1,8.596215248E-1,9.795019150E0
3.238303557E0,2.165504545E-1,8.739784956E-1,9.756733894E0
3.240540618E0,1.926222295E-1,8.835497499E-1,9.766305923E0
3.242775908E0,1.782652885E-1,8.697910309E-1,9.761520386E0
3.245011992E0,1.639083475E-1,8.650053740E-1,9.751350403E0
3.247248075E0,1.734796464E-1,8.506484628E-1,9.732806206E0
3.249484648E0,1.639083475E-1,8.506484628E-1,9.723235130E0
3.251718108E0,1.734796464E-1,8.506484628E-1,9.718449593E0
3.253945647E0,1.830509305E-1,8.602197170E-1,9.713663101E0
3.256193938E0,1.734796464E-1,8.458628058E-1,9.694520950E0
3.258431060E0,1.830509305E-1,8.315058947E-1,9.689735413E0
3.260669523E0,1.878365725E-1,8.410771489E-1,9.689735413E0
3.262902617E0,1.926222295E-1,8.458628058E-1,9.708877563E0
3.265138517E0,1.734796464E-1,8.219345808E-1,9.694520950E0
3.267375273E0,1.878365725E-1,8.410771489E-1,9.708877563E0
3.269611602E0,1.782652885E-1,8.171489239E-1,9.708877563E0
3.271847747E0,1.926222295E-1,8.315058947E-1,9.728020668E0
3.274084380E0,1.734796464E-1,8.315058947E-1,9.732806206E0
3.276321868E0,1.782652885E-1,8.506484628E-1,9.728020668E0
3.278556975E0,1.968096644E-1,8.261220455E-1,9.737591743E0
3.280788847E0,1.926222295E-1,8.362914920E-1,9.737591743E0
3.283009184E0,1.734796464E-1,8.458628058E-1,9.742377281E0
3.285253691E0,1.878365725E-1,8.691928387E-1,9.761520386E0
3.287502043E0,1.878365725E-1,8.602197170E-1,9.747162819E0
3.289742644E0,1.974078715E-1,8.739784956E-1,9.742377281E0
3.291978179E0,1.980060786E-1,8.739784956E-1,9.732806206E0
3.294212065E0,2.027917206E-1,8.787640929E-1,9.732806206E0
3.296447844E0,1.836491376E-1,8.889335990E-1,9.742377281E0
3.298684600E0,1.884347796E-1,8.889335990E-1,9.742377281E0
3.300919768E0,1.980060786E-1,8.883354068E-1,9.732806206E0
3.303156218E0,1.884347796E-1,8.889335990E-1,9.732806206E0
3.305392118E0,1.740778536E-1,8.889335990E-1,9.718449593E0
3.307628752E0,1.597209126E-1,8.895317912E-1,9.708877563E0
3.309865569E0,1.740778536E-1,8.889335990E-1,9.732806206E0
3.312099699E0,1.740778536E-1,8.889335990E-1,9.694520950E0
3.314326079E0,1.692921966E-1,8.751748800E-1,9.684949875E0
3.316574248E0,1.788634956E-1,8.697910309E-1,9.684949875E0
3.318807097E0,1.740778536E-1,8.602197170E-1,9.699306488E0
3.321037687E0,1.692921966E-1,8.650053740E-1,9.699306488E0
3.323283049E0,1.692921966E-1,8.464609981E-1,9.680164337E0
3.325519561E0,1.447657645E-1,8.416753411E-1,9.699306488E0
3.327758696E0,1.639083475E-1,8.416753411E-1,9.684949875E0
3.329993010E0,1.310070455E-1,8.518448472E-1,9.679565430E0
3.332225615E0,1.256231815E-1,8.566305041E-1,9.698708534E0
3.334454009E0,1.256231815E-1,8.279166222E-1,9.669994354E0
3.336700713E0,1.160518974E-1,8.231309652E-1,9.689137459E0
3.338937102E0,1.256231815E-1,8.231309652E-1,9.684351921E0
3.341176298E0,1.304088384E-1,8.279166222E-1,9.665806770E0
3.343409758E0,1.351944804E-1,8.183453679E-1,9.675378799E0
3.345646575E0,1.208375469E-1,8.135597110E-1,9.669994354E0
3.347882048E0,1.112662554E-1,8.135597110E-1,9.674779892E0
3.350113555E0,1.010967568E-1,7.992027402E-1,9.679565430E0
3.352354766E0,1.058823988E-1,7.944171429E-1,9.679565430E0
3.354591094E0,7.716853172E-2,7.998009920E-1,9.679565430E0
3.356828764E0,7.238288224E-2,7.758727670E-1,9.689137459E0
3.359064055E0,4.845465720E-2,7.956135273E-1,9.678967476E0
3.361300139E0,5.802594870E-2,8.093722463E-1,9.693324089E0
3.363537077E0,5.324030295E-2,7.854440212E-1,9.702896118E0
3.365774199E0,4.366901144E-2,8.051848412E-1,9.717252731E0
3.368006499E0,4.366901144E-2,7.998009920E-1,9.731609344E0
3.370231963E0,2.871387079E-2,7.860422134E-1,9.755537987E0
3.372466765E0,9.571290575E-3,8.003991842E-1,9.769296646E0
3.374706450E0,1.854437590E-2,7.716853023E-1,9.783653259E0
3.376957304E0,1.375873014E-2,7.716853023E-1,9.812367439E0
3.379193754E0,-1.016949583E-2,7.621139884E-1,9.807581902E0
3.381430510E0,-1.076770201E-2,7.573283911E-1,9.821938515E0
3.383664336E0,-1.076770201E-2,7.668996453E-1,9.821938515E0
3.385895415E0,-2.033899166E-2,7.668996453E-1,9.830911636E0
3.388115630E0,-2.512463741E-2,7.573283911E-1,9.854840279E0
3.390359954E0,-1.076770201E-2,7.716853023E-1,9.859625816E0
3.392608733E0,-1.196411322E-3,7.573283911E-1,9.845867157E0
3.394849333E0,-1.076770201E-2,7.621139884E-1,9.850054741E0
3.397084196E0,-5.982056726E-3,7.716853023E-1,9.841081619E0
3.399317961E0,8.374879137E-3,7.525427341E-1,9.836296082E0
3.401555022E0,-5.982056726E-3,7.716853023E-1,9.831509590E0
3.403790435E0,1.375873014E-2,7.716853023E-1,9.812367439E0
3.406026580E0,1.914258115E-2,7.908278704E-1,9.788438797E0
3.408262236E0,3.290131316E-2,7.854440212E-1,9.798010826E0
3.410499053E0,4.785645381E-2,7.854440212E-1,9.774680138E0
3.412735381E0,5.264209956E-2,8.093722463E-1,9.789037704E0
3.414968840E0,6.221338734E-2,8.189435601E-1,9.774680138E0
3.417196379E0,7.657032460E-2,8.087740541E-1,9.765109062E0
3.419445464E0,7.657032460E-2,7.992027402E-1,9.765109062E0
3.421680938E0,9.152546525E-2,8.183453679E-1,9.755537987E0
3.423919829E0,1.058823988E-1,8.279166222E-1,9.760921478E0
3.426153106E0,1.202393398E-1,8.368897438E-1,9.741779327E0
3.428389434E0,1.112662554E-1,8.422735929E-1,9.732208252E0
3.430626067E0,1.447657645E-1,8.416753411E-1,9.713065147E0
3.432862151E0,1.357926875E-1,8.703892231E-1,9.698708534E0
3.435098967E0,1.357926875E-1,8.608179688E-1,9.693922997E0
3.437335784E0,1.447657645E-1,8.464609981E-1,9.708279610E0
3.439571623E0,1.501496136E-1,8.703892231E-1,9.689735413E0
3.441808379E0,1.501496136E-1,8.608179688E-1,9.680164337E0
3.444043547E0,1.405783296E-1,8.751748800E-1,9.684351921E0
3.446280059E0,1.549352705E-1,8.991031051E-1,9.717850685E0
3.448516143E0,1.172483116E-1,8.949156404E-1,9.689137459E0
3.450749480E0,1.363908947E-1,9.182456732E-1,9.669994354E0
3.452975493E0,1.555334777E-1,9.086744189E-1,9.665806770E0
3.455216948E0,1.645065546E-1,8.799605370E-1,9.684949875E0
3.457450347E0,1.932204217E-1,8.745766878E-1,9.694520950E0
3.459701139E0,1.980060786E-1,8.697910309E-1,9.704092026E0
3.461935758E0,2.021935135E-1,8.500502706E-1,9.718449593E0
3.464173307E0,2.069791555E-1,8.596215248E-1,9.737591743E0
3.466406768E0,2.165504545E-1,8.452646136E-1,9.728020668E0
3.468643096E0,2.069791555E-1,8.596215248E-1,9.756733894E0
3.470879790E0,2.021935135E-1,8.500502706E-1,9.761520386E0
3.473117034E0,1.968096644E-1,8.500502706E-1,9.785448074E0
3.475352141E0,1.926222295E-1,8.739784956E-1,9.785448074E0
3.477588530E0,1.734796464E-1,8.602197170E-1,9.751948357E0
3.479822233E0,1.686939895E-1,8.697910309E-1,9.770493507E0
3.482047271E0,1.537388563E-1,8.602197170E-1,9.789635658E0
3.484282073E0,1.585244983E-1,8.554341197E-1,9.789635658E0
3.486533660E0,1.686939895E-1,8.650053740E-1,9.789635658E0
3.488772612E0,1.776670814E-1,8.554341197E-1,9.784850121E0
3.491011199E0,1.680957973E-1,8.458628058E-1,9.799206734E0
3.493242461E0,1.633101404E-1,8.602197170E-1,9.789635658E0
3.495478911E0,1.728814393E-1,8.452646136E-1,9.818349838E0
3.497715116E0,1.728814393E-1,8.596215248E-1,9.808777809E0
3.499951567E0,1.639083475E-1,8.697910309E-1,9.794421196E0
3.502185149E0,1.543370634E-1,8.745766878E-1,9.770493507E0
3.504411284E0,1.782652885E-1,8.691928387E-1,9.794421196E0
3.506656340E0,1.597209126E-1,8.937192559E-1,9.760921478E0
3.508897734E0,1.686939895E-1,8.745766878E-1,9.789635658E0
3.511136321E0,1.591227055E-1,8.937192559E-1,9.780064583E0
3.513371611E0,1.543370634E-1,8.793623447E-1,9.808777809E0
3.515605803E0,1.543370634E-1,8.841479421E-1,9.775279045E0
3.517839201E0,1.686939895E-1,8.889335990E-1,9.775279045E0
3.520066435E0,1.836491376E-1,8.889335990E-1,9.761520386E0
3.522314421E0,1.836491376E-1,9.032905698E-1,9.756733894E0
3.524551116E0,1.884347796E-1,8.979067206E-1,9.771091461E0
3.526791288E0,1.980060786E-1,8.883354068E-1,9.737591743E0
3.529023467E0,2.021935135E-1,8.739784956E-1,9.771091461E0
3.531256621E0,2.165504545E-1,8.787640929E-1,9.751948357E0
3.533483916E0,2.261217386E-1,8.781659007E-1,9.761520386E0
3.535732512E0,2.075773627E-1,8.883354068E-1,9.737591743E0
3.537968901E0,1.884347796E-1,8.745766878E-1,9.723235130E0
3.540208159E0,1.980060786E-1,8.787640929E-1,9.732806206E0
3.542441680E0,1.932204217E-1,8.841479421E-1,9.728020668E0
3.544678496E0,2.075773627E-1,8.841479421E-1,9.684949875E0
3.546911834E0,1.836491376E-1,8.650053740E-1,9.694520950E0
3.549142119E0,1.980060786E-1,8.745766878E-1,9.684949875E0
3.551383391E0,1.884347796E-1,8.506484628E-1,9.675378799E0
3.553611235E0,1.884347796E-1,8.506484628E-1,9.661021233E0
3.555861479E0,1.788634956E-1,8.512466550E-1,9.646664619E0
3.558095610E0,1.794617027E-1,8.560323119E-1,9.627521515E0
3.560335296E0,1.932204217E-1,8.506484628E-1,9.637691498E0
3.562569060E0,1.842473447E-1,8.512466550E-1,9.608977318E0
3.564804290E0,1.788634956E-1,8.416753411E-1,9.613762856E0
3.567040740E0,1.932204217E-1,8.416753411E-1,9.608977318E0
3.569276702E0,1.932204217E-1,8.368897438E-1,9.604191780E0
3.571513518E0,1.980060786E-1,8.362914920E-1,9.618548393E0
3.573749541E0,2.075773627E-1,8.410771489E-1,9.623334885E0
3.575985991E0,2.027917206E-1,8.362914920E-1,9.632905960E0
3.578222746E0,1.884347796E-1,8.506484628E-1,9.665806770E0
3.580459868E0,2.075773627E-1,8.410771489E-1,9.666405678E0
3.582695403E0,1.830509305E-1,8.315058947E-1,9.675378799E0
3.584928435E0,1.692921966E-1,8.656035662E-1,9.670592308E0
3.587152312E0,1.830509305E-1,8.506484628E-1,9.704092026E0
3.589403594E0,1.639083475E-1,8.321040869E-1,9.708877563E0
3.591639983E0,1.591227055E-1,8.560323119E-1,9.708877563E0
3.593880278E0,1.639083475E-1,8.458628058E-1,9.718449593E0
3.596113188E0,1.543370634E-1,8.321040869E-1,9.708877563E0
3.598350188E0,1.495514214E-1,8.512466550E-1,9.727422714E0
3.600585479E0,1.686939895E-1,8.506484628E-1,9.718449593E0
3.602821502E0,1.537388563E-1,8.225327730E-1,9.728020668E0
3.605057402E0,1.585244983E-1,8.362914920E-1,9.746564865E0
3.607294341E0,1.824527234E-1,8.362914920E-1,9.747162819E0
3.609531096E0,1.633101404E-1,8.219345808E-1,9.732806206E0
3.611767058E0,1.728814393E-1,8.123632669E-1,9.732806206E0
3.613999418E0,1.680957973E-1,8.123632669E-1,9.737591743E0
3.616223906E0,1.824527234E-1,8.075776696E-1,9.756733894E0
3.618479033E0,1.824527234E-1,8.267202377E-1,9.766305923E0
3.620712004E0,1.872383654E-1,8.123632669E-1,9.742377281E0
3.622952910E0,1.824527234E-1,8.362914920E-1,9.747162819E0
3.625184050E0,2.015953064E-1,8.404789567E-1,9.780662537E0
3.627420989E0,2.063809484E-1,8.452646136E-1,9.804591179E0
3.629657256E0,2.255235314E-1,8.350951076E-1,9.795019150E0
3.631894133E0,2.255235314E-1,8.446664214E-1,9.799804688E0
3.634131255E0,2.494517565E-1,8.446664214E-1,9.805189133E0
3.636366606E0,2.494517565E-1,8.344969153E-1,9.818947792E0
3.638602874E0,2.925225794E-1,8.392825127E-1,9.786046028E0
3.640838897E0,3.026920557E-1,8.440681696E-1,9.772287369E0
3.643075225E0,3.026920557E-1,8.578268886E-1,9.771689415E0
3.645311492E0,3.224328458E-1,8.817551732E-1,9.738788605E0
3.647547698E0,3.320041299E-1,8.817551732E-1,9.705288887E0
3.649784819E0,3.702892959E-1,8.763712645E-1,9.715457916E0
3.652018218E0,3.756731451E-1,8.763712645E-1,9.686744690E0
3.654239836E0,3.565305769E-1,8.865407705E-1,9.681958199E0
3.656482207E0,3.517449200E-1,8.721838593E-1,9.624530792E0
3.658729215E0,3.284149170E-1,8.775677085E-1,9.591031075E0
3.660966337E0,3.086741269E-1,8.685946465E-1,9.595816612E0
3.663190276E0,2.805584669E-1,8.787640929E-1,9.585647583E0
3.665426604E0,2.709871531E-1,8.739784956E-1,9.571290970E0
3.667675139E0,2.518445849E-1,8.739784956E-1,9.566504478E0
3.669914885E0,2.327020019E-1,8.793623447E-1,9.585049629E0
3.672147551E0,1.944168359E-1,8.703892231E-1,9.570692062E0
3.674371916E0,2.033899277E-1,8.560323119E-1,9.585049629E0
3.676619962E0,1.836491376E-1,8.416753411E-1,9.613762856E0
3.678856291E0,1.549352705E-1,8.321040869E-1,9.641879082E0
3.681092803E0,1.399801224E-1,8.279166222E-1,9.651450157E0
3.683316924E0,1.256231815E-1,8.135597110E-1,9.689137459E0
3.685565520E0,1.250249892E-1,8.033902049E-1,9.717850685E0
3.687802520E0,1.052841991E-1,7.944171429E-1,9.746564865E0
3.690040922E0,1.004985496E-1,7.800601721E-1,9.775279045E0
3.692271269E0,1.142572835E-1,7.698906660E-1,9.803992271E0
3.694498319E0,9.451649338E-2,7.507480979E-1,9.846465111E0
3.696746611E0,1.088734269E-1,7.603194118E-1,9.860821724E0
3.698982939E0,1.040877849E-1,7.746763229E-1,9.884750366E0
3.701222259E0,1.088734269E-1,7.740781307E-1,9.894321442E0
3.703455962E0,1.040877849E-1,7.746763229E-1,9.903892517E0
3.705693206E0,1.088734269E-1,7.836494446E-1,9.918250084E0
3.707928374E0,1.369891018E-1,7.686942816E-1,9.942177773E0
3.710164885E0,1.136590764E-1,7.788637877E-1,9.918250084E0
3.712397734E0,1.280160099E-1,7.980063558E-1,9.918250084E0
3.714625640E0,1.333998591E-1,8.027920127E-1,9.884750366E0
3.716872466E0,1.381855011E-1,7.932206988E-1,9.870393753E0
3.719104460E0,1.339980662E-1,8.123632669E-1,9.808777809E0
3.721348966E0,1.633101404E-1,8.315058947E-1,9.803992271E0
3.723583525E0,1.633101404E-1,8.267202377E-1,9.789635658E0
3.725820525E0,1.585244983E-1,8.267202377E-1,9.770493507E0
3.728056365E0,1.734796464E-1,8.602197170E-1,9.732806206E0
3.730291350E0,1.639083475E-1,8.554341197E-1,9.718449593E0
3.732527922E0,1.878365725E-1,8.602197170E-1,9.713663101E0
3.734763944E0,2.027917206E-1,8.793623447E-1,9.694520950E0
3.737000273E0,2.225325108E-1,8.787640929E-1,9.656833649E0
3.739236846E0,2.368894368E-1,8.883354068E-1,9.675976753E0
3.741473967E0,2.321037948E-1,9.266205430E-1,9.690333366E0
3.743709563E0,2.464607358E-1,9.170492887E-1,9.690333366E0
3.745944914E0,2.656033039E-1,9.260223508E-1,9.699904442E0
3.748174711E0,2.560320199E-1,9.260223508E-1,9.728618622E0
3.750401824E0,2.703889608E-1,9.302098155E-1,9.757332802E0
3.752654387E0,2.751746178E-1,9.397810698E-1,9.752547264E0
3.754891691E0,2.656033039E-1,9.445667267E-1,9.757332802E0
3.757131621E0,2.751746178E-1,9.493523836E-1,9.781260490E0
3.759364653E0,2.650051117E-1,9.206385016E-1,9.786046028E0
3.761599883E0,2.745763958E-1,9.206385016E-1,9.771689415E0
3.763835967E0,2.554338276E-1,9.068797827E-1,9.747760773E0
3.766072051E0,2.608176768E-1,9.116654396E-1,9.738189697E0
3.768308684E0,2.697907388E-1,8.781659007E-1,9.728618622E0
3.770545256E0,2.656033039E-1,8.925228715E-1,9.695118904E0
3.772781340E0,2.410768867E-1,8.787640929E-1,9.699904442E0
3.775017912E0,2.650051117E-1,8.542376757E-1,9.709476471E0
3.777254912E0,2.410768867E-1,8.596215248E-1,9.671191216E0
3.779490264E0,2.506481707E-1,8.500502706E-1,9.666405678E0
3.781726409E0,2.267199457E-1,8.500502706E-1,9.661619186E0
3.783961516E0,2.267199457E-1,8.452646136E-1,9.661619186E0
3.786194365E0,2.267199457E-1,8.548358679E-1,9.675976753E0
3.788435393E0,2.171486616E-1,8.362914920E-1,9.637691498E0
3.790671721E0,2.027917206E-1,8.171489239E-1,9.632905960E0
3.792909819E0,2.021935135E-1,8.123632669E-1,9.652048111E0
3.795145903E0,1.974078715E-1,8.171489239E-1,9.652048111E0
3.797381255E0,1.782652885E-1,8.177471161E-1,9.661021233E0
3.799618193E0,1.926222295E-1,8.027920127E-1,9.675976753E0
3.801852935E0,1.830509305E-1,8.123632669E-1,9.694520950E0
3.804089446E0,1.776670814E-1,7.980063558E-1,9.699306488E0
3.806325896E0,1.489532143E-1,8.129615188E-1,9.728020668E0
3.808562102E0,1.489532143E-1,8.177471161E-1,9.746564865E0
3.810798979E0,1.339980662E-1,7.938188910E-1,9.751350403E0
3.813034880E0,1.339980662E-1,7.986045480E-1,9.760921478E0
3.815267180E0,1.154536903E-1,8.081758618E-1,9.751350403E0
3.817507415E0,1.052841991E-1,7.800601721E-1,9.765707016E0
3.819743682E0,9.571290761E-2,7.800601721E-1,9.775279045E0
3.821980193E0,8.554340899E-2,7.561319470E-1,9.765707016E0
3.824212981E0,7.657032460E-2,7.704889178E-1,9.755537987E0
3.826452727E0,7.597211748E-2,7.657032609E-1,9.769894600E0
3.828689604E0,9.571290761E-2,7.704889178E-1,9.756135941E0
3.830927458E0,9.571290761E-2,7.657032609E-1,9.746564865E0
3.833161711E0,1.142572835E-1,7.609176040E-1,9.756135941E0
3.835397979E0,1.286142170E-1,7.555337548E-1,9.751350403E0
3.837634002E0,1.196411327E-1,7.938188910E-1,9.770493507E0
3.839870452E0,1.292124242E-1,7.698906660E-1,9.751350403E0
3.842104033E0,1.292124242E-1,7.842476368E-1,9.751350403E0
3.844331389E0,1.196411327E-1,7.842476368E-1,9.736993790E0
3.846579924E0,1.196411327E-1,7.890332937E-1,9.751350403E0
3.848816741E0,1.052841991E-1,7.992027402E-1,9.756135941E0
3.851052336E0,1.154536903E-1,8.225327730E-1,9.765707016E0
3.853275176E0,1.010967568E-1,8.231309652E-1,9.765707016E0
3.855518645E0,1.154536903E-1,8.464609981E-1,9.784850121E0
3.857761077E0,1.154536903E-1,8.560323119E-1,9.789635658E0
3.860000578E0,1.298106313E-1,8.464609981E-1,9.794421196E0
3.862232207E0,1.393819153E-1,8.560323119E-1,9.780064583E0
3.864455351E0,1.399801224E-1,8.656035662E-1,9.784850121E0
3.866692412E0,1.441675574E-1,8.650053740E-1,9.818349838E0
3.868928374E0,1.872383654E-1,8.596215248E-1,9.813564301E0
3.871166960E0,1.920240223E-1,8.691928387E-1,9.809376717E0
3.873396880E0,1.872383654E-1,8.644071817E-1,9.804591179E0
3.875639983E0,2.021935135E-1,8.596215248E-1,9.785448074E0
3.877876006E0,2.021935135E-1,8.691928387E-1,9.795019150E0
3.880114287E0,2.261217386E-1,8.781659007E-1,9.790233612E0
3.882349150E0,2.213360965E-1,8.691928387E-1,9.771091461E0
3.884589141E0,2.596212626E-1,8.781659007E-1,9.757332802E0
3.886833953E0,2.554338276E-1,8.925228715E-1,9.747760773E0
3.889057463E0,2.554338276E-1,8.829515576E-1,9.742975235E0
3.891293975E0,2.650051117E-1,8.925228715E-1,9.723833084E0
3.893527556E0,2.560320199E-1,8.925228715E-1,9.695118904E0
3.895769316E0,2.745763958E-1,8.733802438E-1,9.686145782E0
3.898005400E0,2.703889608E-1,8.829515576E-1,9.671789169E0
3.900247466E0,2.895315289E-1,8.925228715E-1,9.643074989E0
3.902476775E0,2.799602449E-1,8.781659007E-1,9.643074989E0
3.904714751E0,2.751746178E-1,8.781659007E-1,9.657432556E0
3.906946135E0,2.751746178E-1,8.733802438E-1,9.657432556E0
3.909184966E0,2.697907388E-1,8.685946465E-1,9.667003632E0
3.911422392E0,2.464607358E-1,8.835497499E-1,9.685547829E0
3.913657073E0,2.506481707E-1,8.925228715E-1,9.728618622E0
3.915893279E0,2.506481707E-1,8.781659007E-1,9.704689980E0
3.918129119E0,2.506481707E-1,8.925228715E-1,9.738189697E0
3.920367034E0,2.362912297E-1,8.829515576E-1,9.752547264E0
3.922602324E0,2.267199457E-1,8.973084688E-1,9.785448074E0
3.924838469E0,2.309073806E-1,8.925228715E-1,9.799804688E0
3.927074553E0,2.165504545E-1,9.020941257E-1,9.799804688E0
3.929311492E0,2.069791555E-1,8.973084688E-1,9.818947792E0
3.931548308E0,2.063809484E-1,8.877372146E-1,9.847063065E0
3.933784453E0,2.015953064E-1,8.781659007E-1,9.856635094E0
3.936021330E0,1.872383654E-1,8.644071817E-1,9.870991707E0
3.938258574E0,1.674975902E-1,8.404789567E-1,9.837491989E0
3.940496428E0,1.680957973E-1,8.548358679E-1,9.847063065E0
3.942745024E0,1.579262912E-1,8.452646136E-1,9.856635094E0
3.944980559E0,1.477568001E-1,8.123632669E-1,9.856635094E0
3.947217559E0,1.483550072E-1,8.171489239E-1,9.847063065E0
3.949437956E0,1.387837082E-1,8.219345808E-1,9.851848602E0
3.951686125E0,1.190429255E-1,7.986045480E-1,9.827322960E0
3.953921721E0,1.190429255E-1,7.938188910E-1,9.832108498E0
3.956162870E0,1.190429255E-1,7.986045480E-1,9.823135376E0
3.958395049E0,1.100698411E-1,8.033902049E-1,9.799206734E0
3.960631194E0,9.990034252E-2,7.842476368E-1,9.798608780E0
3.962867400E0,1.094716340E-1,7.698906660E-1,9.799206734E0
3.965103850E0,1.100698411E-1,7.938188910E-1,9.799206734E0
3.967340422E0,1.100698411E-1,7.938188910E-1,9.799206734E0
3.969576506E0,1.238285750E-1,7.842476368E-1,9.799206734E0
3.971813384E0,1.094716340E-1,7.890332937E-1,9.808179855E0
3.974050383E0,1.196411327E-1,7.986045480E-1,9.808777809E0
3.976285796E0,1.244267747E-1,8.177471161E-1,9.780064583E0
3.978522002E0,1.387837082E-1,7.986045480E-1,9.770493507E0
3.980757842E0,1.345962733E-1,8.129615188E-1,9.765707016E0
3.982994353E0,1.435693651E-1,8.081758618E-1,9.765707016E0
3.985228728E0,1.435693651E-1,7.890332937E-1,9.741779327E0
3.987459990E0,1.680957973E-1,8.075776696E-1,9.737591743E0
3.989703459E0,1.537388563E-1,8.129615188E-1,9.718449593E0
3.991940825E0,1.489532143E-1,8.225327730E-1,9.723235130E0
3.994177886E0,1.393819153E-1,7.986045480E-1,9.704092026E0
3.996412444E0,1.298106313E-1,7.944171429E-1,9.684949875E0
3.998648284E0,1.543370634E-1,8.033902049E-1,9.661021233E0
4.000885100E0,1.447657645E-1,8.129615188E-1,9.661021233E0
4.003121489E0,1.441675574E-1,7.890332937E-1,9.684949875E0
4.005358000E0,1.441675574E-1,7.848458290E-1,9.651450157E0
4.007594023E0,1.256231815E-1,8.039883971E-1,9.656235695E0
4.009831145E0,1.256231815E-1,8.087740541E-1,9.627521515E0
4.012063811E0,1.447657645E-1,7.992027402E-1,9.646664619E0
4.014291594E0,1.304088384E-1,7.944171429E-1,9.646664619E0
4.016538909E0,1.304088384E-1,8.039883971E-1,9.641879082E0
4.018775481E0,1.447657645E-1,8.039883971E-1,9.637093544E0
4.021014860E0,1.304088384E-1,7.992027402E-1,9.627521515E0
4.023248076E0,1.304088384E-1,8.087740541E-1,9.637093544E0
4.025484465E0,1.256231815E-1,8.039883971E-1,9.646664619E0
4.027721709E0,1.304088384E-1,8.183453679E-1,9.661021233E0
4.029957061E0,1.351944804E-1,8.183453679E-1,9.646664619E0
4.032190520E0,1.304088384E-1,8.087740541E-1,9.651450157E0
4.034418486E0,1.256231815E-1,8.135597110E-1,9.651450157E0
4.036665862E0,1.357926875E-1,8.279166222E-1,9.641879082E0
4.038902373E0,1.447657645E-1,8.183453679E-1,9.646664619E0
4.041141020E0,1.447657645E-1,8.087740541E-1,9.651450157E0
4.043375334E0,1.166501045E-1,8.279166222E-1,9.632308006E0
4.045612090E0,1.399801224E-1,8.087740541E-1,9.637093544E0
4.047847563E0,1.399801224E-1,8.135597110E-1,9.651450157E0
4.050079803E0,1.543370634E-1,8.177471161E-1,9.637093544E0
4.052304046E0,1.543370634E-1,8.129615188E-1,9.627521515E0
4.054556426E0,1.399801224E-1,8.231309652E-1,9.646664619E0
4.056792510E0,1.304088384E-1,8.183453679E-1,9.646664619E0
4.059032866E0,1.064806059E-1,8.135597110E-1,9.650852203E0
4.061265715E0,1.256231815E-1,8.279166222E-1,9.656235695E0
4.063502776E0,9.690931439E-2,8.237292171E-1,9.650852203E0
4.065737883E0,1.160518974E-1,8.183453679E-1,9.669994354E0
4.067974211E0,1.160518974E-1,8.279166222E-1,9.679565430E0
4.070210540E0,1.160518974E-1,8.231309652E-1,9.684351921E0
4.072447173E0,1.064806059E-1,8.374879360E-1,9.679565430E0
4.074683440E0,1.112662554E-1,8.422735929E-1,9.689137459E0
4.076919524E0,1.160518974E-1,8.279166222E-1,9.713065147E0
4.079153593E0,9.690931439E-2,8.374879360E-1,9.698708534E0
4.081382293E0,1.064806059E-1,8.327022791E-1,9.727422714E0
4.083628508E0,1.202393398E-1,8.177471161E-1,9.746564865E0
4.085865752E0,1.250249892E-1,8.273184299E-1,9.741779327E0
4.088103606E0,1.345962733E-1,8.225327730E-1,9.736993790E0
4.090337554E0,1.345962733E-1,8.273184299E-1,9.736993790E0
4.092573577E0,1.393819153E-1,8.321040869E-1,9.751350403E0
4.094810149E0,1.537388563E-1,8.177471161E-1,9.728020668E0
4.097046660E0,1.489532143E-1,8.273184299E-1,9.736993790E0
4.099280486E0,1.585244983E-1,8.315058947E-1,9.746564865E0
4.101506865E0,1.728814393E-1,8.458628058E-1,9.771091461E0
4.103755156E0,1.686939895E-1,8.554341197E-1,9.747162819E0
4.105991301E0,1.878365725E-1,8.410771489E-1,9.737591743E0
4.108230865E0,1.878365725E-1,8.458628058E-1,9.747162819E0
4.110464141E0,1.836491376E-1,8.745766878E-1,9.737591743E0
4.112700286E0,1.788634956E-1,8.697910309E-1,9.713663101E0
4.114937041E0,1.926222295E-1,8.650053740E-1,9.728020668E0
4.117170927E0,1.836491376E-1,8.745766878E-1,9.728020668E0
4.119397551E0,1.830509305E-1,8.650053740E-1,9.737591743E0
4.121645598E0,1.884347796E-1,8.697910309E-1,9.723235130E0
4.123881926E0,1.926222295E-1,8.602197170E-1,9.728020668E0
4.126121245E0,1.926222295E-1,8.506484628E-1,9.732806206E0
4.128352202E0,1.788634956E-1,8.745766878E-1,9.718449593E0
4.130580413E0,1.830509305E-1,8.458628058E-1,9.732806206E0
4.132827788E0,1.591227055E-1,8.554341197E-1,9.736993790E0
4.135064788E0,1.734796464E-1,8.458628058E-1,9.718449593E0
4.137302763E0,1.351944804E-1,8.368897438E-1,9.732208252E0
4.139536223E0,1.537388563E-1,8.321040869E-1,9.741779327E0
4.141772489E0,1.489532143E-1,8.225327730E-1,9.736993790E0
4.144008818E0,1.298106313E-1,8.225327730E-1,9.732208252E0
4.146246427E0,1.202393398E-1,8.039883971E-1,9.727422714E0
4.148486296E0,1.298106313E-1,8.033902049E-1,9.736993790E0
4.150717803E0,1.196411327E-1,7.896314859E-1,9.732208252E0
4.152954924E0,1.100698411E-1,7.992027402E-1,9.751350403E0
4.155189543E0,9.092725813E-2,7.944171429E-1,9.765109062E0
4.157427886E0,8.614161611E-2,7.896314859E-1,9.774680138E0
4.159660063E0,8.614161611E-2,7.704889178E-1,9.760323524E0
4.161887786E0,7.597211748E-2,7.657032609E-1,9.769894600E0
4.164135526E0,7.178468257E-2,7.758727670E-1,9.760323524E0
4.166371855E0,7.118647546E-2,7.657032609E-1,9.784252167E0
4.168611357E0,7.118647546E-2,7.615157962E-1,9.760323524E0
4.170845488E0,6.640082598E-2,7.615157962E-1,9.769894600E0
4.173080901E0,5.682953820E-2,7.615157962E-1,9.779465675E0
4.175317229E0,7.118647546E-2,7.710871100E-1,9.765109062E0
4.177553313E0,7.657032460E-2,7.896314859E-1,9.765109062E0
4.179789885E0,7.118647546E-2,7.848458290E-1,9.793823242E0
4.182023039E0,6.699903309E-2,7.710871100E-1,9.755537987E0
4.184246855E0,6.699903309E-2,7.854440212E-1,9.765109062E0
4.186487090E0,9.571290761E-2,7.848458290E-1,9.756135941E0
4.188735930E0,1.052841991E-1,7.657032609E-1,9.756135941E0
4.190974639E0,1.004985496E-1,7.752745152E-1,9.760921478E0
4.193210600E0,1.196411327E-1,7.842476368E-1,9.741779327E0
4.195443938E0,1.196411327E-1,7.938188910E-1,9.751350403E0
4.197680266E0,1.393819153E-1,7.842476368E-1,9.713663101E0
4.199916777E0,1.345962733E-1,7.938188910E-1,9.717850685E0
4.202150053E0,1.298106313E-1,7.938188910E-1,9.722636223E0
4.204379241E0,1.393819153E-1,7.890332937E-1,9.718449593E0
4.206626433E0,1.393819153E-1,8.033902049E-1,9.722636223E0
4.208861663E0,1.537388563E-1,8.129615188E-1,9.728020668E0
4.211100554E0,1.447657645E-1,8.273184299E-1,9.708877563E0
4.213335783E0,1.441675574E-1,8.273184299E-1,9.732208252E0
4.215573820E0,1.441675574E-1,8.273184299E-1,9.732208252E0
4.217795256E0,1.351944804E-1,8.416753411E-1,9.732208252E0
4.220043303E0,1.543370634E-1,8.321040869E-1,9.728020668E0
4.222275663E0,1.591227055E-1,8.410771489E-1,9.746564865E0
4.224508147E0,1.639083475E-1,8.362914920E-1,9.737591743E0
4.226752593E0,1.585244983E-1,8.410771489E-1,9.746564865E0
4.228989775E0,1.728814393E-1,8.410771489E-1,9.761520386E0
4.231226531E0,1.776670814E-1,8.506484628E-1,9.771091461E0
4.233456877E0,1.776670814E-1,8.362914920E-1,9.761520386E0
4.235697234E0,1.633101404E-1,8.410771489E-1,9.751350403E0
4.237933684E0,1.734796464E-1,8.458628058E-1,9.756733894E0
4.240171599E0,1.734796464E-1,8.458628058E-1,9.742377281E0
4.242407500E0,1.686939895E-1,8.554341197E-1,9.742377281E0
4.244642668E0,1.447657645E-1,8.703892231E-1,9.741779327E0
4.246878936E0,1.447657645E-1,8.560323119E-1,9.736993790E0
4.249115935E0,1.447657645E-1,8.656035662E-1,9.741779327E0
4.251355315E0,1.166501045E-1,8.709874153E-1,9.717850685E0
4.253587981E0,1.160518974E-1,8.662018180E-1,9.727422714E0
4.255824309E0,1.447657645E-1,8.608179688E-1,9.727422714E0
4.258059965E0,1.543370634E-1,8.506484628E-1,9.746564865E0
4.260297942E0,1.680957973E-1,8.362914920E-1,9.770493507E0
4.262533293E0,1.633101404E-1,8.458628058E-1,9.756135941E0
4.264769561E0,1.633101404E-1,8.410771489E-1,9.784850121E0
4.267005401E0,1.585244983E-1,8.458628058E-1,9.803992271E0
4.269242034E0,1.627119333E-1,8.362914920E-1,9.818349838E0
4.271478606E0,1.579262912E-1,8.410771489E-1,9.827920914E0
4.273714995E0,1.345962733E-1,8.554341197E-1,9.813564301E0
4.275951567E0,1.441675574E-1,8.650053740E-1,9.818349838E0
4.278187834E0,1.250249892E-1,8.703892231E-1,9.808179855E0
4.280420928E0,1.393819153E-1,8.697910309E-1,9.808777809E0
4.282659941E0,1.345962733E-1,8.554341197E-1,9.832108498E0
4.284896026E0,1.393819153E-1,8.793623447E-1,9.818349838E0
4.287133391E0,1.447657645E-1,8.889335990E-1,9.799206734E0
4.289369170E0,1.543370634E-1,8.793623447E-1,9.803992271E0
4.291605071E0,1.686939895E-1,8.745766878E-1,9.784850121E0
4.293841887E0,1.830509305E-1,8.739784956E-1,9.794421196E0
4.296078887E0,1.872383654E-1,8.500502706E-1,9.795019150E0
4.298314543E0,2.069791555E-1,8.596215248E-1,9.780662537E0
4.300551360E0,2.165504545E-1,8.548358679E-1,9.751948357E0
4.302786651E0,1.782652885E-1,8.410771489E-1,9.742377281E0
4.305022979E0,1.304088384E-1,8.374879360E-1,9.693922997E0
4.307259124E0,1.639083475E-1,8.129615188E-1,9.641879082E0
4.309495696E0,1.980060786E-1,8.081758618E-1,9.608977318E0
4.311732573E0,2.117647976E-1,7.645068169E-1,9.604191780E0
4.313969634E0,2.261217386E-1,7.884350419E-1,9.613762856E0
4.316201933E0,2.315055877E-1,7.980063558E-1,9.600004196E0
4.318428984E0,2.321037948E-1,8.506484628E-1,9.618548393E0
4.320677031E0,1.986042857E-1,8.937192559E-1,9.637691498E0
4.322913665E0,1.986042857E-1,9.128618240E-1,9.670592308E0
4.325153167E0,1.794617027E-1,9.176474810E-1,9.675378799E0
4.327386687E0,1.746760458E-1,9.176474810E-1,9.699306488E0
4.329625395E0,1.465603858E-1,9.278169870E-1,9.674779892E0
4.331860137E0,8.494520187E-2,9.577272534E-1,9.631709099E0
4.334095366E0,8.973085135E-2,9.625129104E-1,9.631709099E0
4.336331022E0,9.930214286E-2,9.529415965E-1,9.641280174E0
4.338567594E0,1.220339537E-1,9.044869542E-1,9.655637741E0
4.340803984E0,1.022931710E-1,8.757730722E-1,9.655637741E0
4.343040313E0,1.310070455E-1,8.566305041E-1,9.689137459E0
4.345273894E0,1.447657645E-1,8.273184299E-1,9.699306488E0
4.347502287E0,1.537388563E-1,8.177471161E-1,9.718449593E0
4.349750395E0,1.298106313E-1,8.368897438E-1,9.770493507E0
4.351983610E0,1.393819153E-1,8.464609981E-1,9.784850121E0
4.354215483E0,1.256231815E-1,8.560323119E-1,9.765707016E0
4.356458098E0,1.202393398E-1,8.656035662E-1,9.798608780E0
4.358694609E0,9.631111473E-2,8.470591903E-1,9.779465675E0
4.360933257E0,8.614161611E-2,8.422735929E-1,9.817750931E0
4.363167021E0,8.195417374E-2,8.470591903E-1,9.817750931E0
4.365400725E0,9.631111473E-2,8.703892231E-1,9.822537422E0
4.367626250E0,8.195417374E-2,8.518448472E-1,9.822537422E0
4.369864653E0,8.614161611E-2,8.368897438E-1,9.836894035E0
4.372110686E0,1.004985496E-1,8.368897438E-1,9.846465111E0
4.374339628E0,1.058823988E-1,8.560323119E-1,9.846465111E0
4.376588042E0,1.154536903E-1,8.512466550E-1,9.832108498E0
4.378821318E0,1.154536903E-1,8.464609981E-1,9.827322960E0
4.381060698E0,1.250249892E-1,8.608179688E-1,9.818349838E0
4.383291594E0,1.202393398E-1,8.656035662E-1,9.803992271E0
4.385519561E0,1.250249892E-1,8.560323119E-1,9.780064583E0
4.387766753E0,1.399801224E-1,8.703892231E-1,9.770493507E0
4.390003203E0,1.256231815E-1,8.656035662E-1,9.770493507E0
4.392239042E0,1.304088384E-1,8.751748800E-1,9.736993790E0
4.394463713E0,1.304088384E-1,8.703892231E-1,9.736993790E0
4.396711882E0,1.214357466E-1,8.757730722E-1,9.703494072E0
4.398948088E0,1.208375469E-1,8.566305041E-1,9.713065147E0
4.401187835E0,1.262213886E-1,8.709874153E-1,9.693922997E0
4.403421721E0,1.310070455E-1,8.608179688E-1,9.693922997E0
4.405657317E0,1.262213886E-1,8.853443861E-1,9.693922997E0
4.407893401E0,1.453639716E-1,8.751748800E-1,9.684949875E0
4.410129729E0,1.304088384E-1,8.560323119E-1,9.708279610E0
4.412364897E0,1.405783296E-1,8.703892231E-1,9.689137459E0
4.414595000E0,1.256231815E-1,8.518448472E-1,9.703494072E0
4.416826689E0,1.160518974E-1,8.518448472E-1,9.708279610E0
4.419075346E0,1.208375469E-1,8.374879360E-1,9.679565430E0
4.421313688E0,1.064806059E-1,8.470591903E-1,9.713065147E0
4.423550628E0,9.690931439E-2,8.518448472E-1,9.708279610E0
4.425783721E0,8.733802289E-2,8.374879360E-1,9.732208252E0
4.428019805E0,1.160518974E-1,8.422735929E-1,9.722636223E0
4.430256682E0,9.690931439E-2,8.327022791E-1,9.713065147E0
4.432493010E0,9.152546525E-2,8.374879360E-1,9.736993790E0
4.434729155E0,8.673982322E-2,8.231309652E-1,9.755537987E0
4.436965849E0,8.673982322E-2,7.992027402E-1,9.736993790E0
4.439202666E0,8.195417374E-2,7.998009920E-1,9.727422714E0
4.441438323E0,7.716853172E-2,8.087740541E-1,9.755537987E0
4.443675322E0,8.135596663E-2,7.896314859E-1,9.745966911E0
4.445910491E0,1.010967568E-1,7.944171429E-1,9.732208252E0
4.448144011E0,8.614161611E-2,7.992027402E-1,9.741779327E0
4.450367888E0,7.716853172E-2,7.998009920E-1,9.736394882E0
4.452604521E0,8.673982322E-2,7.992027402E-1,9.727422714E0
4.454844328E0,8.673982322E-2,7.992027402E-1,9.732208252E0
4.457096404E0,8.195417374E-2,8.087740541E-1,9.755537987E0
4.459331695E0,5.742774159E-2,7.998009920E-1,9.736394882E0
4.461567779E0,7.716853172E-2,7.998009920E-1,9.731609344E0
4.463801055E0,9.631111473E-2,8.135597110E-1,9.756135941E0
4.466037383E0,8.673982322E-2,8.135597110E-1,9.745966911E0
4.468273772E0,7.716853172E-2,8.087740541E-1,9.755537987E0
4.470510100E0,8.673982322E-2,8.135597110E-1,9.745966911E0
4.472746977E0,8.135596663E-2,7.992027402E-1,9.750752449E0
4.474983977E0,7.716853172E-2,8.093722463E-1,9.717252731E0
4.477216093E0,6.759724021E-2,8.093722463E-1,9.736394882E0
4.479443328E0,7.716853172E-2,7.998009920E-1,9.717850685E0
4.481691131E0,7.238288224E-2,8.045865893E-1,9.703494072E0
4.483927886E0,7.238288224E-2,7.950153351E-1,9.698708534E0
4.486167570E0,7.716853172E-2,7.998009920E-1,9.689137459E0
4.488400481E0,6.819544733E-2,8.141579032E-1,9.679565430E0
4.490637114E0,6.281159073E-2,7.950153351E-1,9.693324089E0
4.492874297E0,8.673982322E-2,7.854440212E-1,9.684351921E0
4.495109709E0,7.238288224E-2,7.758727670E-1,9.679565430E0
4.497345793E0,5.324030295E-2,7.812566161E-1,9.678967476E0
4.499581817E0,7.178468257E-2,7.663014531E-1,9.693922997E0
4.501818450E0,7.716853172E-2,7.758727670E-1,9.693922997E0
4.504054961E0,6.281159073E-2,7.758727670E-1,9.689137459E0
4.506290862E0,7.657032460E-2,7.615157962E-1,9.693922997E0
4.508527678E0,7.178468257E-2,7.471588850E-1,9.689137459E0
4.510764678E0,6.640082598E-2,7.328019142E-1,9.708279610E0
4.513000395E0,6.161518395E-2,7.519445419E-1,9.731609344E0
4.515237334E0,8.135596663E-2,7.657032609E-1,9.746564865E0
4.517472197E0,8.075776696E-2,7.513462901E-1,9.769894600E0
4.519708831E0,7.118647546E-2,7.704889178E-1,9.798608780E0
4.521945098E0,7.597211748E-2,7.848458290E-1,9.822537422E0
4.524181548E0,6.640082598E-2,7.992027402E-1,9.851250648E0
4.526418364E0,6.640082598E-2,8.087740541E-1,9.856036186E0
4.528655303E0,6.161518395E-2,7.896314859E-1,9.851250648E0
4.530890471E0,4.725824669E-2,8.087740541E-1,9.841081619E0
4.533126738E0,8.075776696E-2,8.129615188E-1,9.870393753E0
4.535362822E0,7.597211748E-2,8.033902049E-1,9.888937950E0
4.537599151E0,8.554340899E-2,8.081758618E-1,9.889535904E0
4.539835174E0,1.046859920E-1,7.986045480E-1,9.879964828E0
4.542071197E0,1.196411327E-1,8.129615188E-1,9.841679573E0
4.544296233E0,1.292124242E-1,8.033902049E-1,9.823135376E0
4.546532561E0,1.292124242E-1,7.986045480E-1,9.818349838E0
4.548768889E0,1.339980662E-1,8.081758618E-1,9.799206734E0
4.551008452E0,1.387837082E-1,7.890332937E-1,9.765707016E0
4.553256682E0,1.345962733E-1,8.225327730E-1,9.732208252E0
4.555492827E0,1.537388563E-1,8.081758618E-1,9.708877563E0
4.557729339E0,1.537388563E-1,8.081758618E-1,9.699306488E0
4.559962493E0,1.591227055E-1,8.177471161E-1,9.665806770E0
4.562196379E0,1.591227055E-1,8.321040869E-1,9.670592308E0
4.564420439E0,1.692921966E-1,8.273184299E-1,9.622735977E0
4.566655913E0,1.597209126E-1,8.225327730E-1,9.627521515E0
4.568907988E0,1.645065546E-1,8.135597110E-1,9.594620705E0
4.571146818E0,1.645065546E-1,8.279166222E-1,9.589835167E0
4.573384367E0,1.740778536E-1,8.081758618E-1,9.599406242E0
4.575616668E0,1.788634956E-1,8.081758618E-1,9.585049629E0
4.577852874E0,1.782652885E-1,8.033902049E-1,9.613762856E0
4.580089629E0,1.740778536E-1,8.177471161E-1,9.575477600E0
4.582323454E0,1.645065546E-1,7.992027402E-1,9.585049629E0
4.584550200E0,1.495514214E-1,8.087740541E-1,9.627521515E0
4.586799407E0,1.399801224E-1,8.183453679E-1,9.627521515E0
4.589034514E0,1.453639716E-1,8.231309652E-1,9.622735977E0
4.591270842E0,1.501496136E-1,8.321040869E-1,9.651450157E0
4.593494902E0,1.399801224E-1,8.183453679E-1,9.632308006E0
4.595743438E0,1.351944804E-1,8.231309652E-1,9.656235695E0
4.597980071E0,1.208375469E-1,8.422735929E-1,9.679565430E0
4.600220122E0,1.304088384E-1,8.183453679E-1,9.665806770E0
4.602452483E0,1.160518974E-1,8.183453679E-1,9.689137459E0
4.604688811E0,1.112662554E-1,8.231309652E-1,9.679565430E0
4.606924895E0,1.112662554E-1,8.327022791E-1,9.713065147E0
4.609161467E0,1.058823988E-1,8.039883971E-1,9.689137459E0
4.611397856E0,1.010967568E-1,7.992027402E-1,9.732208252E0
4.613630584E0,9.631111473E-2,8.039883971E-1,9.736993790E0
4.615855559E0,1.100698411E-1,7.896314859E-1,9.741779327E0
4.618107756E0,9.152546525E-2,8.087740541E-1,9.736993790E0
4.620342925E0,1.052841991E-1,7.992027402E-1,9.746564865E0
