"Time (s)","Gyroscope x (rad/s)","Gyroscope y (rad/s)","Gyroscope z (rad/s)"
1.993714700E-2,-4.289801121E-1,-3.845396638E-1,3.121521473E-1
2.221869900E-2,-4.234823287E-1,-3.604104817E-1,3.049744666E-1
2.450000200E-2,-4.170682430E-1,-3.472768962E-1,2.952006161E-1
2.678520600E-2,-4.030183554E-1,-3.280346394E-1,2.831360400E-1
2.906632200E-2,-3.865249753E-1,-3.126102984E-1,2.712241709E-1
3.134756300E-2,-3.651446998E-1,-2.900082767E-1,2.554943860E-1
3.362849300E-2,-3.448334336E-1,-2.672535479E-1,2.362521291E-1
3.589523200E-2,-3.220787048E-1,-2.483167201E-1,2.205223590E-1
3.813522200E-2,-2.944370508E-1,-2.209804952E-1,2.012801021E-1
4.037026900E-2,-2.654209435E-1,-1.960877478E-1,1.846340150E-1
4.260671800E-2,-2.377792895E-1,-1.747074574E-1,1.652390510E-1
4.484225300E-2,-2.113593817E-1,-1.522581577E-1,1.472185254E-1
4.709188600E-2,-1.849394590E-1,-1.296561509E-1,1.304197311E-1
4.933022900E-2,-1.646281779E-1,-1.081231460E-1,1.111774743E-1
5.156753400E-2,-1.420261711E-1,-8.674286306E-2,9.789115191E-2
5.379830800E-2,-1.204931661E-1,-6.658431143E-2,8.353582025E-2
5.602297800E-2,-1.003346145E-1,-4.871650413E-2,7.284568250E-2
5.826089300E-2,-8.277224004E-2,-3.084869497E-2,6.078109145E-2
6.050930700E-2,-6.505715102E-2,-1.069014147E-2,5.115996301E-2
6.274807600E-2,-4.978551716E-2,4.886921961E-3,4.276056588E-2
6.498477100E-2,-3.604105115E-2,1.908953860E-2,3.695734590E-2
6.721798600E-2,-2.336559631E-2,3.222314268E-2,3.100141138E-2
6.945419200E-2,-8.399397135E-3,4.046982154E-2,2.626720630E-2
7.168789500E-2,-2.138028387E-3,4.520402849E-2,2.504547499E-2
7.391555700E-2,6.566801574E-3,5.115996301E-2,2.153299935E-2
7.616348100E-2,1.771509275E-2,5.329799280E-2,2.031126991E-2
7.840066400E-2,2.886338346E-2,5.543602258E-2,1.924225502E-2
8.063863900E-2,3.756821156E-2,5.528330430E-2,1.924225502E-2
8.287210000E-2,4.489859566E-2,5.283984542E-2,2.306016348E-2
8.510794000E-2,4.963280261E-2,5.024366826E-2,2.306016348E-2
8.734487800E-2,5.451972410E-2,4.291328415E-2,2.183843218E-2
8.958163300E-2,5.803219974E-2,3.787364438E-2,2.794708498E-2
9.181845000E-2,6.154467165E-2,2.809980139E-2,2.916881628E-2
9.405355700E-2,5.879577994E-2,1.847867295E-2,3.161227703E-2
9.629000700E-2,5.619960278E-2,1.130100712E-2,3.756821156E-2
9.852590700E-2,5.589416996E-2,3.054326226E-4,4.001167417E-2
1.007625410E-1,4.948008433E-2,-1.160643995E-2,4.612032697E-2
1.029988090E-1,4.306599870E-2,-2.367102914E-2,5.207626149E-2
1.052351980E-1,3.176499158E-2,-3.558290005E-2,5.681046844E-2
1.074718310E-1,2.764165215E-2,-5.009094998E-2,6.414084882E-2
1.097061450E-1,2.000583708E-2,-6.322455406E-2,7.009678334E-2
1.119296550E-1,1.099557430E-2,-7.635815442E-2,7.483099401E-2
1.141692800E-1,4.581489135E-3,-8.842274547E-2,7.956519723E-2
1.164164710E-1,-3.054326167E-3,-9.804387391E-2,8.567385375E-2
1.186557900E-1,-1.420261711E-2,-1.075122803E-1,8.796459436E-2
1.208920570E-1,-2.076941915E-2,-1.218676195E-1,9.269879758E-2
1.231257620E-1,-2.840523422E-2,-1.314887404E-1,9.392052889E-2
1.253621510E-1,-3.588833287E-2,-1.423316002E-1,9.376781434E-2
1.275992110E-1,-4.596760869E-2,-1.530217379E-1,9.361509979E-2
1.298345020E-1,-5.100724846E-2,-1.589776874E-1,9.361509979E-2
1.320688770E-1,-6.093380973E-2,-1.635591686E-1,9.346238524E-2
1.342989190E-1,-6.719517708E-2,-1.695151031E-1,8.842274547E-2
1.365435470E-1,-7.086037099E-2,-1.682933718E-1,8.720101416E-2
1.387769450E-1,-7.956519723E-2,-1.705841124E-1,8.353582025E-2
1.410064990E-1,-8.323039114E-2,-1.704314053E-1,7.849618047E-2
1.432527760E-1,-8.674286306E-2,-1.667662114E-1,7.360926270E-2
1.454900800E-1,-9.162978828E-2,-1.641700417E-1,6.994406879E-2
1.477293390E-1,-9.285151958E-2,-1.653917581E-1,6.750060618E-2
1.499625540E-1,-9.407325089E-2,-1.653917581E-1,6.383541971E-2
1.521948530E-1,-9.407325089E-2,-1.641700417E-1,6.261368841E-2
1.544219030E-1,-9.392052889E-2,-1.617265791E-1,5.894849449E-2
1.566699500E-1,-9.407325089E-2,-1.641700417E-1,5.772676691E-2
1.589065230E-1,-8.903361112E-2,-1.618792862E-1,5.406157300E-2
1.611463310E-1,-8.903361112E-2,-1.631010175E-1,5.161811411E-2
1.633778360E-1,-8.170322329E-2,-1.656972021E-1,4.673119262E-2
1.656060470E-1,-7.681630552E-2,-1.730275750E-1,4.306599870E-2
1.678517750E-1,-6.948592514E-2,-1.731802970E-1,3.955352306E-2
1.700876760E-1,-6.337726861E-2,-1.817324162E-1,3.588833287E-2
1.723266280E-1,-5.864306539E-2,-1.867720485E-1,2.977968007E-2
1.745605760E-1,-5.375614017E-2,-1.953241676E-1,2.611448988E-2
1.767970260E-1,-4.642575979E-2,-1.979203373E-1,2.122756653E-2
1.790338430E-1,-4.276056588E-2,-2.015855312E-1,1.634064503E-2
1.812708420E-1,-3.802636266E-2,-2.125810981E-1,1.267545391E-2
1.835059500E-1,-3.451388702E-2,-2.186897546E-1,6.566801574E-3
1.857422170E-1,-2.962696366E-2,-2.225076705E-1,2.901609987E-3
1.879783010E-1,-2.474004216E-2,-2.286163121E-1,2.901609987E-3
1.902148730E-1,-2.489275858E-2,-2.347249687E-1,4.581489484E-4
1.924509570E-1,-2.367102914E-2,-2.383901626E-1,-1.985311974E-3
1.946873460E-1,-2.382374369E-2,-2.467895597E-1,-1.985311974E-3
1.969241620E-1,-2.504547499E-2,-2.480112910E-1,-5.650503561E-3
1.991612230E-1,-2.519819140E-2,-2.553416789E-1,-8.246680722E-3
2.013963310E-1,-2.901609987E-2,-2.588541508E-1,-9.468411095E-3
2.036325980E-1,-3.405573592E-2,-2.635883391E-1,-1.069014147E-2
2.058657520E-1,-4.276056588E-2,-2.732094824E-1,-1.328631863E-2
2.080906660E-1,-5.039638281E-2,-2.803871334E-1,-1.343903504E-2
2.103271160E-1,-5.650503561E-2,-2.802344263E-1,-1.099557430E-2
2.125641770E-1,-6.765332818E-2,-2.848159075E-1,-9.926560335E-3
2.148044720E-1,-8.002334833E-2,-2.869539559E-1,-8.704829961E-3
2.170435480E-1,-9.117163718E-2,-2.929098904E-1,-1.007927675E-2
2.192900070E-1,-1.075122803E-1,-3.034473062E-1,-7.788531948E-3
2.215267620E-1,-1.235474944E-1,-3.068070710E-1,-1.038470957E-2
2.237618700E-1,-1.408044398E-1,-3.089450896E-1,-9.315694682E-3
2.259959400E-1,-1.580613852E-1,-3.109304011E-1,-9.468411095E-3
2.282319630E-1,-1.779145002E-1,-3.142901659E-1,-1.099557430E-2
2.304684130E-1,-1.913535446E-1,-3.127630055E-1,-1.099557430E-2
2.327051070E-1,-2.049452960E-1,-3.124575615E-1,-1.237002108E-2
2.349419240E-1,-2.208277881E-1,-3.109304011E-1,-1.618792862E-2
2.371773360E-1,-2.318233550E-1,-3.058907688E-1,-1.756237634E-2
2.394136040E-1,-2.464841306E-1,-2.994766831E-1,-2.000583708E-2
2.416466970E-1,-2.573269904E-1,-2.919935882E-1,-2.382374369E-2
2.438741140E-1,-2.646573782E-1,-2.883284092E-1,-2.871066704E-2
2.461226490E-1,-2.706133127E-1,-2.820670307E-1,-3.237585723E-2
2.483589770E-1,-2.755002379E-1,-2.819143236E-1,-3.619376570E-2
2.505986010E-1,-2.814561725E-1,-2.758056521E-1,-4.352414981E-2
2.528325490E-1,-2.838996351E-1,-2.758056521E-1,-4.596760869E-2
2.550677170E-1,-2.863430977E-1,-2.719877362E-1,-5.085453019E-2
2.573042290E-1,-2.861903608E-1,-2.684752643E-1,-5.574145541E-2
2.595401300E-1,-2.811507285E-1,-2.648100853E-1,-6.307183951E-2
2.617769460E-1,-2.846632004E-1,-2.587014437E-1,-7.040221989E-2
2.640129690E-1,-2.794708610E-1,-2.478585690E-1,-7.880161703E-2
2.662493580E-1,-2.767219543E-1,-2.382374406E-1,-8.613199741E-2
2.684858690E-1,-2.727513313E-1,-2.298380435E-1,-9.590584040E-2
2.707200000E-1,-2.700024247E-1,-2.189951837E-1,-1.030835137E-1
2.729434490E-1,-2.625193298E-1,-2.154827118E-1,-1.104138941E-1
2.751829520E-1,-2.574796975E-1,-2.095267773E-1,-1.151480973E-1
2.774307550E-1,-2.475531399E-1,-2.096794993E-1,-1.188132912E-1
2.796702570E-1,-2.390010208E-1,-2.086104751E-1,-1.198823079E-1
2.819062790E-1,-2.289217561E-1,-2.015855312E-1,-1.211040318E-1
2.841396780E-1,-2.165517360E-1,-1.970040351E-1,-1.209513173E-1
2.863763110E-1,-2.041817009E-1,-1.947132945E-1,-1.183551401E-1
2.886136160E-1,-1.930334121E-1,-1.913535446E-1,-1.169806942E-1
2.908489670E-1,-1.869247705E-1,-1.902845204E-1,-1.169806942E-1
2.930860280E-1,-1.747074574E-1,-1.928807050E-1,-1.168279797E-1
2.953210730E-1,-1.635591686E-1,-1.907426715E-1,-1.168279797E-1
2.975577070E-1,-1.574505121E-1,-1.919644028E-1,-1.142318025E-1
2.997937310E-1,-1.499674171E-1,-1.921171248E-1,-1.117883399E-1
3.020271290E-1,-1.414152980E-1,-1.934915632E-1,-1.142318025E-1
3.042550340E-1,-1.328631938E-1,-1.973094791E-1,-1.104138941E-1
3.065042410E-1,-1.279762685E-1,-1.986839175E-1,-1.079704314E-1
3.087364790E-1,-1.169806942E-1,-2.000583708E-1,-1.041525230E-1
3.109669470E-1,-1.120937690E-1,-2.002110779E-1,-1.029307917E-1
3.132116370E-1,-1.084285825E-1,-2.026545405E-1,-9.926560521E-2
3.154480270E-1,-1.010981947E-1,-2.052507252E-1,-9.666942805E-2
3.176872850E-1,-9.865473956E-2,-2.052507252E-1,-9.422596544E-2
3.199206840E-1,-9.514226019E-2,-2.078468949E-1,-9.300423414E-2
3.221545090E-1,-9.147707373E-2,-2.102903575E-1,-9.178250283E-2
3.243830860E-1,-8.888089657E-2,-2.067778856E-1,-9.178250283E-2
3.266294850E-1,-8.521570265E-2,-2.079996169E-1,-9.056077152E-2
3.288659960E-1,-8.399397135E-2,-2.043344229E-1,-8.918632567E-2
3.311046430E-1,-8.399397135E-2,-2.055561543E-1,-8.796459436E-2
3.333385300E-1,-8.139779419E-2,-2.008219510E-1,-8.918632567E-2
3.355749800E-1,-7.651086897E-2,-2.020436823E-1,-9.040805697E-2
3.378093550E-1,-7.406741381E-2,-2.034181207E-1,-9.040805697E-2
3.400406790E-1,-6.918048859E-2,-2.034181207E-1,-8.918632567E-2
3.422848800E-1,-6.185010448E-2,-2.047925740E-1,-8.781187981E-2
3.445198660E-1,-5.696318299E-2,-2.073887438E-1,-8.536841720E-2
3.467582080E-1,-4.581489414E-2,-2.026545405E-1,-8.643743396E-2
3.489924610E-1,-3.833179548E-2,-2.003637999E-1,-8.888089657E-2
3.512263470E-1,-3.329215571E-2,-1.931861341E-1,-9.239336848E-2
3.534541920E-1,-2.687807009E-2,-1.837177277E-1,-9.605856240E-2
3.557016890E-1,-1.786780916E-2,-1.692096740E-1,-1.020144969E-1
3.579380780E-1,-1.023199316E-2,-1.572978050E-1,-1.116356254E-1
3.601781290E-1,-2.443460980E-3,-1.417207420E-1,-1.188132912E-1
3.624107350E-1,4.123340361E-3,-1.211040318E-1,-1.298088580E-1
3.646471240E-1,9.468411095E-3,-1.018617824E-1,-1.357648075E-1
3.668791800E-1,1.725694351E-2,-8.750644326E-2,-1.453859210E-1
3.691194750E-1,2.015855350E-2,-7.177666575E-2,-1.527163088E-1
3.713525070E-1,2.901609987E-2,-6.093380973E-2,-1.598939747E-1
3.735810830E-1,3.176499158E-2,-5.131268129E-2,-1.660026312E-1
3.758258340E-1,3.558290005E-2,-4.657847434E-2,-1.731802970E-1
3.780513600E-1,3.695734590E-2,-3.802636266E-2,-1.780672222E-1
3.802923880E-1,4.062253982E-2,-3.940080851E-2,-1.829541475E-1
3.825374440E-1,4.321871698E-2,-3.940080851E-2,-1.878410578E-1
3.847763350E-1,4.444044828E-2,-3.817907721E-2,-1.927279830E-1
3.870127240E-1,4.581489414E-2,-3.573561832E-2,-2.000583708E-1
3.892461230E-1,4.214970022E-2,-3.451388702E-2,-2.025018334E-1
3.914825120E-1,3.863722831E-2,-2.840523422E-2,-2.073887438E-1
3.937194500E-1,3.008511290E-2,-2.458732575E-2,-2.098322064E-1
3.959566330E-1,2.153299935E-2,-2.443460934E-2,-2.136501223E-1
3.981914360E-1,1.282817032E-2,-2.428189293E-2,-2.148718536E-1
4.004275810E-1,4.276056774E-3,-2.412917651E-2,-2.162462920E-1
4.026640310E-1,-1.053742506E-2,-2.504547499E-2,-2.188424766E-1
4.049004810E-1,-2.153299935E-2,-2.596177347E-2,-2.176207453E-1
4.071368700E-1,-3.649919853E-2,-3.298672289E-2,-2.189951837E-1
4.093730760E-1,-4.642575979E-2,-3.649919853E-2,-2.179261744E-1
4.116097090E-1,-5.635231733E-2,-4.108068720E-2,-2.156354338E-1
4.138467700E-1,-6.505715102E-2,-4.459316283E-2,-2.180788964E-1
4.160820610E-1,-8.231408894E-2,-4.062253982E-2,-2.145664245E-1
4.183181450E-1,-9.453139454E-2,-4.153883830E-2,-2.098322064E-1
4.205542290E-1,-1.044579595E-1,-4.016438872E-2,-2.073887438E-1
4.227908010E-1,-1.178969890E-1,-3.863722831E-2,-2.050980031E-1
4.250271900E-1,-1.290452778E-1,-3.726277873E-2,-2.040289938E-1
4.272635180E-1,-1.365283877E-1,-3.833179548E-2,-2.003637999E-1
4.295001510E-1,-1.478293836E-1,-4.657847434E-2,-1.944078654E-1
4.317373950E-1,-1.553124934E-1,-5.253441259E-2,-1.870774776E-1
4.339727460E-1,-1.629483104E-1,-6.322455406E-2,-1.786780804E-1
4.362097460E-1,-1.656972021E-1,-7.544185966E-2,-1.689042449E-1
4.384446710E-1,-1.696678251E-1,-8.384125680E-2,-1.556179225E-1
4.406816700E-1,-1.725694388E-1,-9.834930301E-2,-1.409571618E-1
4.429143360E-1,-1.765400618E-1,-1.067487001E-1,-1.177442744E-1
4.451421800E-1,-1.745547503E-1,-1.165225431E-1,-8.964447677E-2
4.473903490E-1,-1.750128865E-1,-1.322523206E-1,-6.032294407E-2
4.496275320E-1,-1.707368344E-1,-1.530217379E-1,-2.855795063E-2
4.518658120E-1,-1.579086632E-1,-1.750128865E-1,-1.679879380E-3
4.540992110E-1,-1.398881376E-1,-1.912008226E-1,1.435533352E-2
4.563352350E-1,-1.203404516E-1,-2.012801021E-1,2.672535367E-2
4.585715630E-1,-9.453139454E-2,-1.970040351E-1,3.436116874E-2
4.608078910E-1,-6.963863969E-2,-1.840231568E-1,3.329215571E-2
4.630442800E-1,-4.703662544E-2,-1.626428664E-1,3.237585723E-2
4.652811570E-1,-2.809980139E-2,-1.388191283E-1,3.145955876E-2
4.675181570E-1,-1.404990070E-2,-1.136209369E-1,3.039054573E-2
4.697532640E-1,-5.039638374E-3,-9.315694869E-2,3.298672289E-2
4.719908120E-1,1.374446787E-3,-7.987063378E-2,3.680463135E-2
4.742307420E-1,8.857546374E-3,-7.513642311E-2,4.550946131E-2
4.764622490E-1,8.857546374E-3,-7.513642311E-2,5.283984542E-2
4.786985770E-1,1.130100712E-2,-7.162395120E-2,5.772676691E-2
4.809336230E-1,1.130100712E-2,-6.795875728E-2,6.505715102E-2
4.831714770E-1,1.374446787E-2,-6.795875728E-2,6.872233748E-2
4.854084770E-1,1.374446787E-2,-6.307183951E-2,7.254024595E-2
4.876435840E-1,1.267545391E-2,-5.711590126E-2,7.131851465E-2
4.898799120E-1,1.038470957E-2,-5.329799280E-2,7.254024595E-2
4.921130660E-1,5.497787148E-3,-5.329799280E-2,6.872233748E-2
4.943409110E-1,-1.985311974E-3,-5.192354694E-2,6.627888232E-2
4.965890180E-1,-8.093964309E-3,-5.054909736E-2,6.261368841E-2
4.988255300E-1,-1.542434748E-2,-4.917465150E-2,6.001751125E-2
5.010648490E-1,-2.535090782E-2,-5.513058975E-2,5.864306539E-2
5.032991630E-1,-3.390302137E-2,-5.497787148E-2,5.375614017E-2
5.055345140E-1,-4.138612002E-2,-5.726861581E-2,5.238169432E-2
5.077717580E-1,-5.375614017E-2,-6.185010448E-2,4.871650413E-2
5.100063760E-1,-6.093380973E-2,-5.436700583E-2,4.489859566E-2
5.122402630E-1,-6.826419383E-2,-5.299255997E-2,3.878994286E-2
5.144643850E-1,-7.559457421E-2,-5.650503561E-2,3.375030309E-2
5.167042530E-1,-8.536841720E-2,-5.390885845E-2,2.886338346E-2
5.189524830E-1,-9.392052889E-2,-5.253441259E-2,2.015855350E-2
5.211925330E-1,-9.758572280E-2,-5.131268129E-2,1.282817032E-2
5.234277630E-1,-1.010981947E-1,-4.505131021E-2,5.497787148E-3
5.256609180E-1,-1.059851199E-1,-4.871650413E-2,-1.985311974E-3
5.278970020E-1,-1.120937690E-1,-4.856378585E-2,-1.053742506E-2
5.301335740E-1,-1.157589629E-1,-4.963280261E-2,-1.420261711E-2
5.323699020E-1,-1.169806942E-1,-5.085453019E-2,-2.031126991E-2
5.346061080E-1,-1.194241568E-1,-5.085453019E-2,-2.412917651E-2
5.368430470E-1,-1.194241568E-1,-5.085453019E-2,-2.535090782E-2
5.390797410E-1,-1.195768714E-1,-5.451972410E-2,-2.535090782E-2
5.413155200E-1,-1.171334088E-1,-6.062837690E-2,-2.779436857E-2
5.435512380E-1,-1.172861308E-1,-6.536258012E-2,-2.779436857E-2
5.457874440E-1,-1.111774743E-1,-6.795875728E-2,-2.901609987E-2
5.480238940E-1,-1.012509167E-1,-6.811147183E-2,-2.886338346E-2
5.502603440E-1,-9.514226019E-2,-6.948592514E-2,-2.886338346E-2
5.524966720E-1,-8.903361112E-2,-6.841690838E-2,-2.871066704E-2
5.547332440E-1,-8.032877743E-2,-6.490442902E-2,-3.115412779E-2
5.569703050E-1,-7.284568250E-2,-6.261368841E-2,-3.344487399E-2
5.592056570E-1,-6.414084882E-2,-5.910121277E-2,-3.100141138E-2
5.614419850E-1,-5.925392732E-2,-5.558873713E-2,-3.207042441E-2
5.636780080E-1,-4.688390717E-2,-5.589416996E-2,-2.840523422E-2
5.659143970E-1,-4.321871698E-2,-5.467243865E-2,-2.825251780E-2
5.681509080E-1,-4.062253982E-2,-5.115996301E-2,-2.336559631E-2
5.703869920E-1,-3.817907721E-2,-5.115996301E-2,-2.214386500E-2
5.726236860E-1,-3.313944116E-2,-4.398229718E-2,-1.847867295E-2
5.748608690E-1,-3.084869497E-2,-4.642575979E-2,-1.588249579E-2
5.770962820E-1,-2.458732575E-2,-4.291328415E-2,-1.099557430E-2
5.793333420E-1,-2.214386500E-2,-4.428773001E-2,-7.330383174E-3
5.815683890E-1,-1.832595654E-2,-3.817907721E-2,-4.734205548E-3
5.838050220E-1,-1.099557430E-2,-3.588833287E-2,-2.290744567E-3
5.860411670E-1,-5.955935922E-3,-3.359758854E-2,3.054326226E-4
5.882779830E-1,-2.290744567E-3,-3.008511290E-2,2.748893574E-3
5.905115030E-1,5.345070735E-3,-1.924225502E-2,2.901609987E-3
5.927385540E-1,1.023199316E-2,-1.817324013E-2,4.123340361E-3
5.949803760E-1,1.786780916E-2,-4.886921961E-3,5.497787148E-3
5.972107230E-1,1.924225502E-2,2.290744567E-3,3.054326167E-3
5.994620040E-1,2.428189293E-2,9.468411095E-3,6.719517522E-3
6.016961350E-1,2.580905706E-2,1.679879427E-2,6.872233935E-3
6.039347210E-1,2.962696366E-2,2.519819140E-2,6.872233935E-3
6.061679980E-1,2.611448988E-2,3.375030309E-2,6.872233935E-3
6.084046920E-1,2.611448988E-2,3.863722831E-2,9.315694682E-3
6.106418750E-1,2.382374369E-2,4.108068720E-2,9.315694682E-3
6.128767990E-1,1.878410578E-2,4.230241850E-2,1.175915636E-2
6.151133720E-1,1.527163107E-2,4.856378585E-2,1.053742506E-2
6.173493340E-1,1.160643995E-2,4.734205827E-2,1.053742506E-2
6.195828540E-1,9.162978269E-3,4.734205827E-2,9.315694682E-3
6.218067310E-1,3.054326167E-3,4.993823543E-2,9.162978269E-3
6.240440360E-1,-6.108652451E-4,5.115996301E-2,7.941247895E-3
6.262953170E-1,-5.650503561E-3,4.886921868E-2,7.941247895E-3
6.285352460E-1,-8.093964309E-3,4.780020565E-2,6.719517522E-3
6.307710860E-1,-8.093964309E-3,5.009094998E-2,7.941247895E-3
6.330039360E-1,-1.298088674E-2,5.024366826E-2,6.566801574E-3
6.352397760E-1,-1.420261711E-2,4.657847434E-2,5.345070735E-3
6.374763480E-1,-1.802052557E-2,4.184427112E-2,4.123340361E-3
6.397124320E-1,-1.924225502E-2,4.428773001E-2,1.679879380E-3
6.419490650E-1,-1.679879427E-2,4.306599870E-2,4.581489484E-4
6.441856980E-1,-2.168571576E-2,4.199698567E-2,-7.635815418E-4
6.464230030E-1,-2.428189293E-2,3.955352306E-2,-2.138028387E-3
6.486582930E-1,-2.168571576E-2,3.833179548E-2,-5.803219974E-3
6.508953540E-1,-2.535090782E-2,3.833179548E-2,-8.246680722E-3
6.531304010E-1,-2.809980139E-2,3.115412779E-2,-9.468411095E-3
6.553669730E-1,-2.428189293E-2,2.977968007E-2,-1.435533352E-2
6.575998220E-1,-2.183843218E-2,2.855795063E-2,-1.069014147E-2
6.598260790E-1,-1.695151068E-2,2.733621933E-2,-1.557706390E-2
6.620676560E-1,-1.343903504E-2,2.229658142E-2,-1.313360315E-2
6.643013600E-1,-1.099557430E-2,2.351831272E-2,-1.298088674E-2
6.665514200E-1,-9.621127509E-3,2.351831272E-2,-1.542434748E-2
6.687877480E-1,-7.177666761E-3,2.458732575E-2,-1.542434748E-2
6.710105880E-1,-5.955935922E-3,2.458732575E-2,-1.542434748E-2
6.732478920E-1,-2.290744567E-3,2.214386500E-2,-1.542434748E-2
6.754819630E-1,-2.290744567E-3,2.092213556E-2,-1.298088674E-2
6.777181690E-1,-1.221730490E-3,1.970040426E-2,-1.298088674E-2
6.799552900E-1,-2.443460980E-3,1.847867295E-2,-1.053742506E-2
6.821918630E-1,-6.261368748E-3,1.007927675E-2,-9.468411095E-3
6.844292890E-1,-5.039638374E-3,8.857546374E-3,-6.872233935E-3
6.866730030E-1,-9.926560335E-3,1.007927675E-2,-8.246680722E-3
6.888992600E-1,-1.130100712E-2,7.788531948E-3,-5.803219974E-3
6.911354660E-1,-1.007927675E-2,4.123340361E-3,-3.359758761E-3
6.933692310E-1,-1.649336144E-2,6.108652451E-4,2.748893574E-3
6.956234430E-1,-2.015855350E-2,1.832595794E-3,5.192354787E-3
6.978598920E-1,-2.260201424E-2,-4.581489484E-4,7.483099122E-3
7.000979290E-1,-2.886338346E-2,-1.679879380E-3,1.237002108E-2
7.023293750E-1,-2.764165215E-2,-5.345070735E-3,1.603521220E-2
7.045655200E-1,-3.023782931E-2,-6.414085161E-3,1.725694351E-2
7.068017870E-1,-3.023782931E-2,-1.007927675E-2,1.970040426E-2
7.090381760E-1,-2.794708498E-2,-1.130100712E-2,2.336559631E-2
7.112717580E-1,-3.283400834E-2,-1.007927675E-2,2.580905706E-2
7.134988700E-1,-3.405573592E-2,-1.007927675E-2,2.825251780E-2
7.157477100E-1,-3.405573592E-2,-1.130100712E-2,2.947424725E-2
7.179846480E-1,-3.161227703E-2,-8.857546374E-3,3.313944116E-2
7.202230520E-1,-2.535090782E-2,-5.345070735E-3,3.573561832E-2
7.224570000E-1,-2.657263726E-2,-1.679879380E-3,3.695734590E-2
7.246878950E-1,-2.519819140E-2,3.207042580E-3,3.940080851E-2
7.269082320E-1,-1.908953860E-2,4.276056774E-3,3.940080851E-2
7.291470010E-1,-2.153299935E-2,6.719517522E-3,4.062253982E-2
7.313965740E-1,-1.771509275E-2,1.023199316E-2,3.940080851E-2
7.336232590E-1,-1.267545391E-2,1.511891466E-2,3.833179548E-2
7.358795450E-1,-6.414085161E-3,1.740965992E-2,3.711006418E-2
7.381105030E-1,-1.007927675E-2,1.863138936E-2,3.711006418E-2
7.403514080E-1,-5.039638374E-3,2.580905706E-2,3.466660157E-2
7.425825490E-1,-2.443460980E-3,3.420845419E-2,3.481931984E-2
7.448191210E-1,-1.069014193E-3,3.665191308E-2,3.115412779E-2
7.470554490E-1,4.581489484E-4,5.482515693E-2,3.619376570E-2
7.492918380E-1,3.665191587E-3,9.239336848E-2,4.489859566E-2
7.515284100E-1,4.581489484E-4,1.227839142E-1,4.856378585E-2
7.537634570E-1,-7.788531948E-3,1.363756657E-1,5.100724846E-2
7.559927660E-1,-1.786780916E-2,1.291979998E-1,4.978551716E-2
7.582371510E-1,-2.550362423E-2,1.136209369E-1,4.596760869E-2
7.604731740E-1,-3.100141138E-2,8.460483700E-2,3.848451003E-2
7.627115160E-1,-3.512475267E-2,5.925392732E-2,3.466660157E-2
7.649458300E-1,-3.909537569E-2,4.108068720E-2,2.718350291E-2
7.671822190E-1,-4.077525437E-2,1.924225502E-2,2.214386500E-2
7.694190350E-1,-3.863722831E-2,4.581489135E-3,1.603521220E-2
7.716558520E-1,-3.497203439E-2,-3.054326226E-4,1.237002108E-2
7.738912040E-1,-3.375030309E-2,-2.748893574E-3,9.926560335E-3
7.761274710E-1,-3.375030309E-2,-3.970623948E-3,2.596177394E-3
7.783635550E-1,-3.634648025E-2,-9.926560335E-3,-6.108652335E-3
7.805999440E-1,-3.390302137E-2,-1.970040426E-2,-1.343903504E-2
7.828364550E-1,-3.665191308E-2,-3.420845419E-2,-1.832595654E-2
7.850726000E-1,-3.924809024E-2,-4.260785133E-2,-2.458732575E-2
7.873094770E-1,-3.940080851E-2,-4.993823543E-2,-2.825251780E-2
7.895464770E-1,-4.062253982E-2,-5.115996301E-2,-2.947424725E-2
7.917806080E-1,-4.199698567E-2,-5.360342562E-2,-2.458732575E-2
7.940129080E-1,-4.566217586E-2,-5.711590126E-2,-2.229658142E-2
7.962536920E-1,-4.841107130E-2,-6.307183951E-2,-1.985312067E-2
7.984905690E-1,-5.192354694E-2,-6.062837690E-2,-1.740965992E-2
8.007283000E-1,-5.451972410E-2,-6.414084882E-2,-1.130100712E-2
8.029630420E-1,-5.345070735E-2,-6.902777404E-2,-7.635815535E-3
8.051997970E-1,-5.589416996E-2,-6.780604273E-2,-5.192354787E-3
8.074367970E-1,-5.711590126E-2,-6.780604273E-2,-3.054326226E-4
8.096722090E-1,-5.726861581E-2,-6.780604273E-2,2.138028387E-3
8.119082320E-1,-5.604688451E-2,-7.147123665E-2,3.359758761E-3
8.141443780E-1,-5.360342562E-2,-7.024950534E-2,4.581489135E-3
8.163811940E-1,-5.238169432E-2,-7.147123665E-2,9.468411095E-3
8.186175220E-1,-4.993823543E-2,-7.284568250E-2,8.246680722E-3
8.208545820E-1,-4.993823543E-2,-7.162395120E-2,1.191187184E-2
8.230940230E-1,-4.749477282E-2,-7.040221989E-2,1.435533352E-2
8.253271780E-1,-4.505131021E-2,-6.933320314E-2,1.450804994E-2
8.275625900E-1,-4.123340547E-2,-6.811147183E-2,1.572977938E-2
8.297980020E-1,-3.756821156E-2,-6.704246253E-2,1.939497143E-2
8.320327440E-1,-3.512475267E-2,-6.215553731E-2,2.183843218E-2
8.342615650E-1,-3.008511290E-2,-5.864306539E-2,2.321287990E-2
8.365078420E-1,-2.886338346E-2,-5.619960278E-2,2.443460934E-2
8.387439260E-1,-2.382374369E-2,-4.902193695E-2,2.687807009E-2
8.409832440E-1,-2.244929783E-2,-4.535674304E-2,2.825251780E-2
8.432174980E-1,-2.229658142E-2,-3.817907721E-2,2.825251780E-2
8.454527270E-1,-2.092213556E-2,-3.207042441E-2,3.191770986E-2
8.476892990E-1,-2.076941915E-2,-2.489275858E-2,3.069597855E-2
8.499255660E-1,-1.939497143E-2,-1.756237634E-2,3.191770986E-2
8.521589640E-1,-2.061670274E-2,-1.389718428E-2,3.207042441E-2
8.543870530E-1,-1.802052557E-2,-6.719517522E-3,3.207042441E-2
8.566345510E-1,-1.802052557E-2,-5.497787148E-3,3.329215571E-2
8.588672780E-1,-2.153299935E-2,-6.108652451E-4,3.084869497E-2
8.610951210E-1,-1.893682219E-2,4.276056774E-3,3.084869497E-2
8.633435960E-1,-1.893682219E-2,9.162978269E-3,3.207042441E-2
8.655808400E-1,-2.000583708E-2,1.404990070E-2,3.207042441E-2
8.678196700E-1,-1.878410578E-2,1.511891466E-2,3.207042441E-2
8.700523360E-1,-2.000583708E-2,1.634064503E-2,3.207042441E-2
8.722856740E-1,-1.878410578E-2,1.756237634E-2,3.084869497E-2
8.745113200E-1,-1.740965992E-2,1.878410578E-2,2.962696366E-2
8.767469770E-1,-1.878410578E-2,1.634064503E-2,3.207042441E-2
8.789872120E-1,-2.000583708E-2,1.634064503E-2,3.207042441E-2
8.812369060E-1,-2.122756653E-2,1.404990070E-2,3.329215571E-2
8.834732340E-1,-2.244929783E-2,1.527163107E-2,3.573561832E-2
8.857092570E-1,-2.382374369E-2,9.162978269E-3,3.817907721E-2
8.879428390E-1,-2.657263726E-2,1.985311974E-3,4.062253982E-2
8.901789840E-1,-2.412917651E-2,-4.581489484E-4,4.184427112E-2
8.924153740E-1,-2.306016348E-2,-9.010262787E-3,4.306599870E-2
8.946521900E-1,-2.321287990E-2,-1.389718428E-2,4.291328415E-2
8.968893110E-1,-2.565634064E-2,-1.374446787E-2,4.413501546E-2
8.991246020E-1,-2.825251780E-2,-1.863138936E-2,4.657847434E-2
9.013606860E-1,-2.580905706E-2,-2.596177347E-2,4.780020565E-2
9.035969530E-1,-2.718350291E-2,-3.191770986E-2,4.780020565E-2
9.058332810E-1,-2.733621933E-2,-3.802636266E-2,4.902193695E-2
9.080696700E-1,-2.138028294E-2,-4.550946131E-2,4.902193695E-2
9.103059380E-1,-1.786780916E-2,-5.283984542E-2,5.146539584E-2
9.125425710E-1,-1.420261711E-2,-6.017022580E-2,4.780020565E-2
9.147796310E-1,-8.246680722E-3,-6.627888232E-2,5.024366826E-2
9.170149220E-1,2.596177394E-3,-7.620543987E-2,4.535674304E-2
9.192511280E-1,1.130100712E-2,-7.406741381E-2,4.306599870E-2
9.214875780E-1,2.367102914E-2,-7.299839705E-2,3.940080851E-2
9.237241500E-1,3.619376570E-2,-6.719517708E-2,3.833179548E-2
9.259619430E-1,4.734205827E-2,-6.139195710E-2,3.481931984E-2
9.281960130E-1,5.482515693E-2,-5.665775016E-2,3.130684420E-2
9.304330120E-1,6.475171447E-2,-5.314527452E-2,2.886338346E-2
9.326697680E-1,6.979135424E-2,-4.841107130E-2,2.657263726E-2
9.349056690E-1,7.849618047E-2,-4.505131021E-2,2.168571576E-2
9.371426680E-1,7.880161703E-2,-3.649919853E-2,1.924225502E-2
9.393776540E-1,7.880161703E-2,-3.283400834E-2,1.802052557E-2
9.416141040E-1,7.773260027E-2,-2.550362423E-2,1.069014147E-2
9.438504320E-1,7.162395120E-2,-2.306016348E-2,9.468411095E-3
9.460870040E-1,6.688974798E-2,-2.046398632E-2,7.024950348E-3
9.483235760E-1,5.955936015E-2,-1.420261711E-2,3.359758761E-3
9.505603930E-1,5.100724846E-2,-1.160643995E-2,1.985311974E-3
9.527959280E-1,4.123340547E-2,-7.788531948E-3,1.985311974E-3
9.550319510E-1,3.145955876E-2,-3.970623948E-3,1.832595794E-3
9.572679130E-1,1.924225502E-2,-3.817907767E-3,6.108652451E-4
9.595047290E-1,1.053742506E-2,-2.443460980E-3,2.901609987E-3
9.617412400E-1,-2.901609987E-3,2.748893574E-3,2.901609987E-3
9.639772020E-1,-1.389718428E-2,5.345070735E-3,2.748893574E-3
9.662139570E-1,-2.122756653E-2,5.497787148E-3,3.054326226E-4
9.684509570E-1,-2.855795063E-2,6.872233935E-3,1.374446787E-3
9.706864310E-1,-3.222314268E-2,1.053742506E-2,2.596177394E-3
9.729225150E-1,-3.970624134E-2,8.246680722E-3,1.527163113E-4
9.751579880E-1,-4.077525437E-2,1.069014147E-2,1.374446787E-3
9.773951100E-1,-4.199698567E-2,1.435533352E-2,3.817907767E-3
9.796316210E-1,-4.199698567E-2,1.557706390E-2,6.261368748E-3
9.818679490E-1,-4.199698567E-2,1.802052557E-2,2.596177394E-3
9.841045820E-1,-3.817907721E-2,2.046398632E-2,2.596177394E-3
9.863412770E-1,-3.924809024E-2,2.412917651E-2,1.527163113E-4
9.885765060E-1,-4.062253982E-2,2.046398632E-2,-1.069014193E-3
9.908100270E-1,-3.802636266E-2,2.397646010E-2,-2.290744567E-3
9.930382370E-1,-3.680463135E-2,2.764165215E-2,-5.955935922E-3
9.952899460E-1,-3.543018550E-2,2.764165215E-2,-7.177666761E-3
9.975220020E-1,-3.420845419E-2,3.008511290E-2,-1.084285788E-2
9.997611370E-1,-3.420845419E-2,2.764165215E-2,-1.328631863E-2
1.001997526E0,-3.176499158E-2,3.115412779E-2,-1.313360315E-2
1.004246367E0,-3.039054573E-2,3.604105115E-2,-1.557706390E-2
1.006467375E0,-2.901609987E-2,3.726277873E-2,-1.802052557E-2
1.008704436E0,-2.428189293E-2,3.100141138E-2,-1.802052557E-2
1.010936126E0,-2.306016348E-2,3.100141138E-2,-1.924225502E-2
1.013176177E0,-2.183843218E-2,2.611448988E-2,-2.046398632E-2
1.015412505E0,-2.321287990E-2,2.138028294E-2,-2.046398632E-2
1.017648955E0,-1.710422710E-2,1.878410578E-2,-2.168571576E-2
1.019882353E0,-1.725694351E-2,1.511891466E-2,-2.168571576E-2
1.022107451E0,-1.481348183E-2,9.010262787E-3,-2.290744707E-2
1.024345916E0,-1.374446787E-2,5.345070735E-3,-2.412917651E-2
1.026593840E0,-1.007927675E-2,1.679879380E-3,-2.657263726E-2
1.028833098E0,-7.635815535E-3,-4.428773187E-3,-2.657263726E-2
1.031069426E0,-5.345070735E-3,-5.650503561E-3,-2.535090782E-2
1.033303069E0,-4.123340361E-3,-9.315694682E-3,-2.412917651E-2
1.035539153E0,-4.581489484E-4,-1.313360315E-2,-2.290744707E-2
1.037776030E0,4.428773187E-3,-1.313360315E-2,-1.924225502E-2
1.040012969E0,4.276056774E-3,-1.557706390E-2,-1.679879427E-2
1.042248076E0,2.901609987E-3,-2.046398632E-2,-1.557706390E-2
1.044481169E0,7.788531948E-3,-2.657263726E-2,-1.435533352E-2
1.046708526E0,9.010262787E-3,-2.657263726E-2,-1.069014147E-2
1.048957122E0,7.635815535E-3,-3.390302137E-2,-5.803219974E-3
1.051192656E0,8.704829961E-3,-3.756821156E-2,-5.803219974E-3
1.053429350E0,9.926560335E-3,-3.634648025E-2,-3.359758761E-3
1.055666289E0,1.237002108E-2,-3.756821156E-2,3.054326226E-4
1.057900480E0,1.603521220E-2,-3.894266114E-2,4.581489484E-4
1.060128813E0,1.359175146E-2,-3.756821156E-2,4.123340361E-3
1.062374724E0,1.588249579E-2,-4.138612002E-2,5.345070735E-3
1.064607634E0,1.588249579E-2,-4.260785133E-2,7.788531948E-3
1.066837980E0,1.466076635E-2,-4.489859566E-2,8.857546374E-3
1.069084075E0,1.343903504E-2,-4.367686436E-2,8.857546374E-3
1.071317290E0,1.084285788E-2,-4.734205827E-2,1.130100712E-2
1.073548064E0,1.206458826E-2,-4.856378585E-2,1.007927675E-2
1.075793730E0,1.206458826E-2,-4.978551716E-2,1.007927675E-2
1.078029326E0,9.468411095E-3,-5.207626149E-2,1.007927675E-2
1.080269133E0,8.399397135E-3,-5.085453019E-2,8.857546374E-3
1.082501494E0,4.581489135E-3,-5.451972410E-2,7.635815535E-3
1.084737822E0,-3.054326226E-4,-5.314527452E-2,6.261368748E-3
1.086971464E0,-5.345070735E-3,-5.543602258E-2,7.483099122E-3
1.089200469E0,-8.857546374E-3,-5.299255997E-2,8.704829961E-3
1.091447173E0,-1.007927675E-2,-5.177082866E-2,6.261368748E-3
1.093684477E0,-1.389718428E-2,-5.283984542E-2,5.039638374E-3
1.095922270E0,-1.878410578E-2,-5.283984542E-2,3.665191587E-3
1.098155852E0,-2.244929783E-2,-5.146539584E-2,4.886921961E-3
1.100391814E0,-2.733621933E-2,-4.780020565E-2,3.665191587E-3
1.102628142E0,-2.840523422E-2,-4.657847434E-2,2.443460980E-3
1.104864531E0,-3.207042441E-2,-4.398229718E-2,1.221730490E-3
1.107100859E0,-3.069597855E-2,-3.802636266E-2,2.443460980E-3
1.109337554E0,-3.436116874E-2,-3.191770986E-2,1.221730490E-3
1.111574797E0,-3.543018550E-2,-2.703078650E-2,2.443460980E-3
1.113809905E0,-3.787364438E-2,-2.214386500E-2,1.221730490E-3
1.116046233E0,-4.138612002E-2,-1.343903504E-2,2.443460980E-3
1.118282256E0,-4.123340547E-2,-9.926560335E-3,2.443460980E-3
1.120518889E0,-4.123340547E-2,-5.039638374E-3,6.108652335E-3
1.122753752E0,-4.108068720E-2,-1.374446787E-3,3.665191587E-3
1.124982634E0,-4.474587739E-2,-1.527163113E-4,7.330383174E-3
1.127215910E0,-4.596760869E-2,2.290744567E-3,9.773843922E-3
1.129465178E0,-4.596760869E-2,4.734205548E-3,1.099557430E-2
1.131701995E0,-4.474587739E-2,4.734205548E-3,1.221730467E-2
1.133939910E0,-4.963280261E-2,4.886921961E-3,1.221730467E-2
1.136172881E0,-5.467243865E-2,2.596177394E-3,1.466076635E-2
1.138409270E0,-5.467243865E-2,-1.069014193E-3,1.466076635E-2
1.140645781E0,-5.604688451E-2,-3.512475174E-3,1.466076635E-2
1.142881804E0,-5.986479297E-2,-9.468411095E-3,1.572977938E-2
1.145118315E0,-6.123924255E-2,-1.557706390E-2,1.939497143E-2
1.147355742E0,-6.123924255E-2,-2.046398632E-2,1.817324013E-2
1.149591216E0,-6.383541971E-2,-2.764165215E-2,1.817324013E-2
1.151826811E0,-6.887505949E-2,-3.359758854E-2,2.046398632E-2
1.154053435E0,-7.284568250E-2,-3.955352306E-2,2.168571576E-2
1.156287932E0,-7.666359097E-2,-4.673119262E-2,2.275473066E-2
1.158535857E0,-7.406741381E-2,-4.566217586E-2,2.290744707E-2
1.160774016E0,-7.422012836E-2,-5.054909736E-2,2.519819140E-2
1.163012114E0,-7.696902007E-2,-6.017022580E-2,2.519819140E-2
1.165246123E0,-7.696902007E-2,-6.383541971E-2,2.764165215E-2
1.167478422E0,-7.712173462E-2,-6.856962293E-2,3.008511290E-2
1.169706084E0,-7.467827946E-2,-7.238753140E-2,2.886338346E-2
1.171953643E0,-7.360926270E-2,-7.834346592E-2,3.130684420E-2
1.174187346E0,-6.994406879E-2,-8.216137439E-2,3.130684420E-2
1.176417753E0,-6.643159688E-2,-8.704829961E-2,3.130684420E-2
1.178662932E0,-6.536258012E-2,-9.315694869E-2,3.130684420E-2
1.180899504E0,-5.543602258E-2,-9.330966324E-2,3.375030309E-2
1.183139433E0,-5.177082866E-2,-9.468411654E-2,3.390302137E-2
1.185371611E0,-4.459316283E-2,-9.957103431E-2,3.512475267E-2
1.187608000E0,-3.588833287E-2,-9.621127695E-2,3.649919853E-2
1.189844268E0,-2.718350291E-2,-9.025534242E-2,3.649919853E-2
1.192077666E0,-2.214386500E-2,-9.040805697E-2,3.772092983E-2
1.194305083E0,-1.847867295E-2,-8.918632567E-2,3.787364438E-2
1.196553496E0,-1.099557430E-2,-8.689557761E-2,3.909537569E-2
1.198789824E0,-8.399397135E-3,-8.093964309E-2,3.787364438E-2
1.201029753E0,1.527163113E-4,-7.987063378E-2,4.413501546E-2
1.203262480E0,3.970623948E-3,-7.635815442E-2,4.291328415E-2
1.205498625E0,7.635815535E-3,-7.269296050E-2,4.795292020E-2
1.207734832E0,1.023199316E-2,-6.918048859E-2,4.795292020E-2
1.209971465E0,1.267545391E-2,-6.795875728E-2,4.917465150E-2
1.212204680E0,1.634064503E-2,-6.688974798E-2,5.161811411E-2
1.214432158E0,1.649336144E-2,-6.200282276E-2,5.421429127E-2
1.216680205E0,1.771509275E-2,-5.955936015E-2,5.910121277E-2
1.218917510E0,2.138028294E-2,-6.078109145E-2,5.910121277E-2
1.221155791E0,2.260201424E-2,-6.093380973E-2,6.398813426E-2
1.223390044E0,2.504547499E-2,-5.971207842E-2,6.643159688E-2
1.225625274E0,2.626720630E-2,-6.093380973E-2,6.887505949E-2
1.227861663E0,2.871066704E-2,-6.093380973E-2,6.887505949E-2
1.230097747E0,3.359758854E-2,-5.986479297E-2,7.147123665E-2
1.232334319E0,3.726277873E-2,-5.757404864E-2,7.269296050E-2
1.234571135E0,3.863722831E-2,-5.390885845E-2,7.269296050E-2
1.236807952E0,4.489859566E-2,-4.917465150E-2,7.162395120E-2
1.239040312E0,4.856378585E-2,-4.932736978E-2,7.162395120E-2
1.241267546E0,5.115996301E-2,-4.444044828E-2,7.162395120E-2
1.243515409E0,5.497787148E-2,-3.848451003E-2,7.055493444E-2
1.245752043E0,5.757404864E-2,-3.481931984E-2,6.688974798E-2
1.247991546E0,6.001751125E-2,-3.008511290E-2,6.566801667E-2
1.250224700E0,6.383541971E-2,-2.641992271E-2,6.322455406E-2
1.252461333E0,6.398813426E-2,-2.412917651E-2,5.955936015E-2
1.254698516E0,6.643159688E-2,-2.046398632E-2,5.589416996E-2
1.256930693E0,6.536258012E-2,-1.802052557E-2,5.222897977E-2
1.259157988E0,6.536258012E-2,-1.802052557E-2,4.978551716E-2
1.261405729E0,6.673702598E-2,-1.435533352E-2,4.138612002E-2
1.263642424E0,6.444628537E-2,-8.246680722E-3,3.756821156E-2
1.265881927E0,6.444628537E-2,-7.024950348E-3,3.527746722E-2
1.268112090E0,6.078109145E-2,-4.581489135E-3,3.145955876E-2
1.270339751E0,5.726861581E-2,-2.138028387E-3,2.657263726E-2
1.272588957E0,5.360342562E-2,-1.985311974E-3,2.168571576E-2
1.274824309E0,5.115996301E-2,-7.635815418E-4,1.924225502E-2
1.277063383E0,4.505131021E-2,6.108652451E-4,1.175915636E-2
1.279296416E0,4.260785133E-2,-3.054326167E-3,6.872233935E-3
1.281532988E0,4.138612002E-2,-3.054326167E-3,3.207042580E-3
1.283769316E0,3.878994286E-2,-6.566801574E-3,-4.581489484E-4
1.286002409E0,3.268129006E-2,-6.414085161E-3,-5.497787148E-3
1.288230071E0,2.901609987E-2,-1.130100712E-2,-1.160643995E-2
1.290479338E0,2.886338346E-2,-1.603521220E-2,-1.404990070E-2
1.292715056E0,2.779436857E-2,-1.359175146E-2,-1.771509275E-2
1.294955290E0,2.641992271E-2,-1.970040426E-2,-2.153299935E-2
1.297187041E0,2.031126991E-2,-1.710422710E-2,-2.397646010E-2
1.299423430E0,2.290744707E-2,-1.481348183E-2,-2.764165215E-2
1.301659635E0,1.802052557E-2,-1.466076635E-2,-2.764165215E-2
1.303896086E0,1.802052557E-2,-1.588249579E-2,-3.252857551E-2
1.306132964E0,2.046398632E-2,-1.710422710E-2,-3.497203439E-2
1.308369963E0,1.557706390E-2,-1.466076635E-2,-3.497203439E-2
1.310605254E0,1.572977938E-2,-8.552113548E-3,-3.497203439E-2
1.312841094E0,1.450804994E-2,-7.330383174E-3,-3.375030309E-2
1.315077361E0,1.206458826E-2,-2.443460980E-3,-3.497203439E-2
1.317313750E0,1.343903504E-2,1.221730490E-3,-3.375030309E-2
1.319550383E0,1.221730467E-2,4.886921961E-3,-3.008511290E-2
1.321786467E0,1.359175146E-2,1.328631863E-2,-2.626720630E-2
1.324024260E0,1.496619824E-2,2.061670274E-2,-2.504547499E-2
1.326260893E0,1.634064503E-2,3.145955876E-2,-2.138028294E-2
1.328483245E0,1.771509275E-2,4.001167417E-2,-1.756237634E-2
1.330731719E0,1.786780916E-2,4.841107130E-2,-1.634064503E-2
1.332966948E0,1.802052557E-2,5.818491429E-2,-1.145372353E-2
1.335207731E0,2.076941915E-2,7.269296050E-2,-7.635815535E-3
1.337440703E0,2.229658142E-2,8.475755155E-2,-5.192354787E-3
1.339676848E0,2.489275858E-2,9.437867999E-2,-1.374446787E-3
1.341913664E0,2.260201424E-2,1.029307917E-1,-1.527163113E-4
1.344150969E0,2.412917651E-2,1.162171140E-1,-1.527163113E-4
1.346386138E0,2.168571576E-2,1.200350225E-1,1.069014193E-3
1.348622405E0,2.183843218E-2,1.235474944E-1,1.069014193E-3
1.350858367E0,2.183843218E-2,1.247692257E-1,3.512475174E-3
1.353090788E0,2.183843218E-2,1.259909570E-1,1.069014193E-3
1.355314909E0,1.817324013E-2,1.261436790E-1,1.069014193E-3
1.357566252E0,1.450804994E-2,1.249219403E-1,-2.596177394E-3
1.359804350E0,1.313360315E-2,1.226311997E-1,-2.596177394E-3
1.362041655E0,1.069014147E-2,1.214094684E-1,-2.748893574E-3
1.364262358E0,9.315694682E-3,1.165225431E-1,-3.970623948E-3
1.366513701E0,6.872233935E-3,1.130100712E-1,-5.192354787E-3
1.368748748E0,5.497787148E-3,1.056796908E-1,-2.748893574E-3
1.370988860E0,2.901609987E-3,9.850201756E-2,-5.345070735E-3
1.373218596E0,2.748893574E-3,9.239336848E-2,-4.123340361E-3
1.375443388E0,1.527163113E-4,8.399397135E-2,-6.566801574E-3
1.377682829E0,1.069014193E-3,7.299839705E-2,-2.901609987E-3
1.379931914E0,9.162978968E-4,6.215553731E-2,-4.276056774E-3
1.382166838E0,1.985311974E-3,5.482515693E-2,-5.497787148E-3
1.384394622E0,-7.635815418E-4,4.520402849E-2,-4.276056774E-3
1.386639068E0,3.054326226E-4,3.298672289E-2,-3.054326167E-3
1.388872588E0,1.374446787E-3,2.565634064E-2,-1.985311974E-3
1.391102995E0,2.443460980E-3,2.076941915E-2,-7.635815418E-4
1.393345305E0,8.399397135E-3,9.773843922E-3,4.581489484E-4
1.395573454E0,9.468411095E-3,3.665191587E-3,-7.635815418E-4
1.397825346E0,1.069014147E-2,-0.000000000E0,4.123340361E-3
1.400057585E0,1.420261711E-2,-0.000000000E0,1.282817032E-2
1.402296904E0,1.466076635E-2,2.428189293E-2,2.871066704E-2
1.404529570E0,1.527163107E-2,6.185010448E-2,4.734205827E-2
1.406766387E0,1.099557430E-2,9.712757170E-2,5.955936015E-2
1.409002410E0,-0.000000000E0,1.070541367E-1,6.933320314E-2
1.411236174E0,-1.130100712E-2,9.880745411E-2,7.528914511E-2
1.413464690E0,-2.504547499E-2,8.689557761E-2,8.368854225E-2
1.415712737E0,-3.649919853E-2,7.498370856E-2,9.224065393E-2
1.417948942E0,-4.062253982E-2,5.558873713E-2,9.697485715E-2
1.420188933E0,-4.459316283E-2,3.756821156E-2,9.926560521E-2
1.422410856E0,-4.734205827E-2,2.306016348E-2,1.004873365E-1
1.424656584E0,-4.031710699E-2,8.246680722E-3,9.560041130E-2
1.426891997E0,-3.313944116E-2,-3.970623948E-3,9.071348608E-2
1.429131560E0,-2.596177347E-2,-1.389718428E-2,8.460483700E-2
1.431363127E0,-1.237002108E-2,-1.893682219E-2,7.727445662E-2
1.433591155E0,-1.527163113E-4,-2.519819140E-2,7.131851465E-2
1.435838713E0,9.773843922E-3,-2.183843218E-2,6.643159688E-2
1.438075530E0,2.107485011E-2,-1.588249579E-2,5.925392732E-2
1.440313810E0,3.207042441E-2,-1.618792862E-2,5.329799280E-2
1.442547148E0,3.848451003E-2,-1.023199316E-2,4.596760869E-2
1.444783233E0,4.352414981E-2,-6.719517522E-3,3.741549700E-2
1.447019622E0,5.100724846E-2,-4.428773187E-3,3.268129006E-2
1.449256682E0,5.726861581E-2,2.748893574E-3,3.023782931E-2
1.451493499E0,6.246097013E-2,1.481348183E-2,3.039054573E-2
1.453728850E0,6.398813426E-2,2.443460934E-2,2.794708498E-2
1.455960417E0,7.024950534E-2,3.649919853E-2,2.932153270E-2
1.458183378E0,7.177666575E-2,4.612032697E-2,3.176499158E-2
1.460437590E0,7.315111160E-2,5.711590126E-2,3.069597855E-2
1.462674163E0,7.208210230E-2,6.429356337E-2,2.703078650E-2
1.464914641E0,7.101308554E-2,7.040221989E-2,2.825251780E-2
1.467146880E0,6.856962293E-2,7.299839705E-2,2.336559631E-2
1.469384063E0,6.750060618E-2,7.422012836E-2,1.970040426E-2
1.471619231E0,6.383541971E-2,7.788532227E-2,1.343903504E-2
1.473855559E0,6.139195710E-2,7.544185966E-2,9.773843922E-3
1.476091520E0,5.879577994E-2,6.948592514E-2,1.221730490E-3
1.478327971E0,5.253441259E-2,6.230825558E-2,-3.817907767E-3
1.480564482E0,5.253441259E-2,5.986479297E-2,-9.926560335E-3
1.482800566E0,4.871650413E-2,5.146539584E-2,-1.603521220E-2
1.485035369E0,4.123340547E-2,4.428773001E-2,-1.863138936E-2
1.487266875E0,3.619376570E-2,3.711006418E-2,-2.367102914E-2
1.489509612E0,3.359758854E-2,2.871066704E-2,-2.855795063E-2
1.491745940E0,2.733621933E-2,2.031126991E-2,-3.115412779E-2
1.493983855E0,2.229658142E-2,1.191187184E-2,-3.359758854E-2
1.496218657E0,1.466076635E-2,4.886921961E-3,-3.863722831E-2
1.498455168E0,8.552113548E-3,6.108652335E-3,-4.108068720E-2
1.500691313E0,-0.000000000E0,7.483099122E-3,-4.367686436E-2
1.502928069E0,-4.734205548E-3,1.252273750E-2,-4.734205827E-2
1.505164824E0,-1.466076635E-2,1.389718428E-2,-4.489859566E-2
1.507400481E0,-2.428189293E-2,2.260201424E-2,-4.612032697E-2
1.509637480E0,-2.779436857E-2,3.359758854E-2,-4.367686436E-2
1.511872649E0,-3.619376570E-2,4.337143153E-2,-4.138612002E-2
1.514109221E0,-3.726277873E-2,5.558873713E-2,-3.634648025E-2
1.516345244E0,-3.955352306E-2,6.536258012E-2,-3.268129006E-2
1.518581572E0,-4.046982154E-2,7.635815442E-2,-2.657263726E-2
1.520818144E0,-4.031710699E-2,8.964447677E-2,-1.908953860E-2
1.523052397E0,-3.878994286E-2,1.102611795E-1,-1.298088674E-2
1.525279387E0,-3.970624134E-2,1.247692257E-1,-6.719517522E-3
1.527526946E0,-3.084869497E-2,1.403462887E-1,-4.581489484E-4
1.529762969E0,-3.161227703E-2,1.598939747E-1,4.428773187E-3
1.532003874E0,-3.023782931E-2,1.695151031E-1,1.313360315E-2
1.534242766E0,-2.641992271E-2,1.815796942E-1,1.557706390E-2
1.536472258E0,-2.641992271E-2,1.840231568E-1,1.924225502E-2
1.538708891E0,-2.275473066E-2,1.826487035E-1,2.428189293E-2
1.540944182E0,-2.504547499E-2,1.889100820E-1,2.916881628E-2
1.543181182E0,-2.260201424E-2,1.887573600E-1,3.527746722E-2
1.545417327E0,-2.015855350E-2,1.899790913E-1,3.894266114E-2
1.547653594E0,-2.031126991E-2,1.887573600E-1,4.260785133E-2
1.549889922E0,-2.275473066E-2,1.887573600E-1,4.505131021E-2
1.552125578E0,-2.031126991E-2,1.850921661E-1,4.627304152E-2
1.554356596E0,-1.802052557E-2,1.826487035E-1,4.871650413E-2
1.556587004E0,-1.695151068E-2,1.728748679E-1,5.238169432E-2
1.558836272E0,-1.710422710E-2,1.632537395E-1,5.360342562E-2
1.561072295E0,-1.374446787E-2,1.522581577E-1,5.726861581E-2
1.563310759E0,-9.010262787E-3,1.435533315E-1,6.215553731E-2
1.565543975E0,-1.038470957E-2,1.424843222E-1,7.070764899E-2
1.567780364E0,-1.023199316E-2,1.521054506E-1,8.414668590E-2
1.570016936E0,-1.130100712E-2,1.655444801E-1,9.392052889E-2
1.572250029E0,-1.481348183E-2,1.692096740E-1,9.758572280E-2
1.574477873E0,-2.122756653E-2,1.620320082E-1,1.012509167E-1
1.576726592E0,-3.008511290E-2,1.488984078E-1,1.059851199E-1
1.578962248E0,-3.298672289E-2,1.295034289E-1,1.094975919E-1
1.581202239E0,-3.344487399E-2,1.101084575E-1,1.094975919E-1
1.583434356E0,-3.619376570E-2,9.315694869E-2,1.142318025E-1
1.585670684E0,-4.016438872E-2,8.109235764E-2,1.166752651E-1
1.587906768E0,-3.787364438E-2,7.498370856E-2,1.178969890E-1
1.590140471E0,-3.558290005E-2,6.276640296E-2,1.178969890E-1
1.592364897E0,-3.711006418E-2,4.948008433E-2,1.165225431E-1
1.594602690E0,-3.115412779E-2,3.970624134E-2,1.140790880E-1
1.596852629E0,-3.023782931E-2,2.626720630E-2,1.104138941E-1
1.599091581E0,-2.550362423E-2,1.160643995E-2,1.055269688E-1
1.601328337E0,-2.076941915E-2,4.276056774E-3,1.043052375E-1
1.603561064E0,-1.970040426E-2,-4.276056774E-3,9.926560521E-2
1.605797637E0,-1.481348183E-2,-1.038470957E-2,9.575312585E-2
1.608033782E0,-9.926560335E-3,-1.420261711E-2,8.964447677E-2
1.610270659E0,-8.857546374E-3,-2.260201424E-2,8.704829961E-2
1.612507659E0,-5.192354787E-3,-2.641992271E-2,8.353582025E-2
1.614743010E0,-1.679879380E-3,-3.252857551E-2,7.864890248E-2
1.616979094E0,-1.679879380E-3,-3.619376570E-2,7.727445662E-2
1.619212370E0,-2.901609987E-3,-3.726277873E-2,7.116580009E-2
1.621439727E0,7.635815418E-4,-3.863722831E-2,7.360926270E-2
1.623688079E0,-6.108652451E-4,-4.337143153E-2,6.994406879E-2
1.625924346E0,-3.054326167E-3,-4.459316283E-2,6.872233748E-2
1.628163970E0,-4.276056774E-3,-4.703662544E-2,6.750060618E-2
1.630398101E0,-5.497787148E-3,-4.581489414E-2,6.383541971E-2
1.632633696E0,-1.160643995E-2,-5.054909736E-2,5.757404864E-2
1.634870024E0,-1.420261711E-2,-5.161811411E-2,5.268712714E-2
1.637105985E0,-1.542434748E-2,-5.650503561E-2,4.902193695E-2
1.639342009E0,-1.542434748E-2,-5.894849449E-2,4.291328415E-2
1.641578337E0,-1.679879427E-2,-6.368270516E-2,3.787364438E-2
1.643814727E0,-2.031126991E-2,-6.123924255E-2,3.298672289E-2
1.646051665E0,-2.275473066E-2,-6.123924255E-2,2.932153270E-2
1.648288726E0,-2.519819140E-2,-6.352998316E-2,2.565634064E-2
1.650524260E0,-2.626720630E-2,-5.635231733E-2,2.199114859E-2
1.652761077E0,-2.993239649E-2,-5.009094998E-2,1.710422710E-2
1.654992216E0,-2.855795063E-2,-4.535674304E-2,1.343903504E-2
1.657216033E0,-2.596177347E-2,-4.535674304E-2,8.552113548E-3
1.659468596E0,-2.703078650E-2,-3.680463135E-2,6.108652335E-3
1.661705352E0,-2.825251780E-2,-3.436116874E-2,4.886921961E-3
1.663946135E0,-3.176499158E-2,-3.069597855E-2,-2.443460980E-3
1.666176176E0,-2.672535367E-2,-2.596177347E-2,-4.886921961E-3
1.668399687E0,-2.794708498E-2,-2.229658142E-2,-8.552113548E-3
1.670638762E0,-2.779436857E-2,-1.740965992E-2,-1.206458826E-2
1.672886809E0,-2.886338346E-2,-1.496619824E-2,-1.450804994E-2
1.675126310E0,-2.504547499E-2,-9.010262787E-3,-1.695151068E-2
1.677362638E0,-2.626720630E-2,-6.566801574E-3,-1.939497143E-2
1.679595793E0,-2.611448988E-2,-4.123340361E-3,-2.306016348E-2
1.681832610E0,-2.733621933E-2,-1.679879380E-3,-2.183843218E-2
1.684066618E0,-2.977968007E-2,1.985311974E-3,-2.428189293E-2
1.686292754E0,-2.733621933E-2,3.207042580E-3,-2.428189293E-2
1.688540801E0,-2.855795063E-2,3.207042580E-3,-2.550362423E-2
1.690777068E0,-3.207042441E-2,4.581489135E-3,-2.672535367E-2
1.693016508E0,-3.100141138E-2,9.162978968E-4,-2.916881628E-2
1.695250090E0,-3.466660157E-2,-3.054326226E-4,-2.932153270E-2
1.697486174E0,-3.344487399E-2,9.162978968E-4,-3.039054573E-2
1.699723052E0,-3.329215571E-2,3.359758761E-3,-3.161227703E-2
1.701960051E0,-3.466660157E-2,9.162978968E-4,-3.054326214E-2
1.704195403E0,-3.588833287E-2,-2.748893574E-3,-3.176499158E-2
1.706431426E0,-3.344487399E-2,-1.527163084E-3,-3.543018550E-2
1.708667510E0,-3.359758854E-2,-7.635815535E-3,-3.298672289E-2
1.710904143E0,-3.115412779E-2,-8.857546374E-3,-3.298672289E-2
1.713140715E0,-3.726277873E-2,-1.114829071E-2,-3.543018550E-2
1.715376799E0,-3.863722831E-2,-1.359175146E-2,-3.665191308E-2
1.717613432E0,-3.878994286E-2,-2.076941915E-2,-3.665191308E-2
1.719850676E0,-4.001167417E-2,-2.199114859E-2,-4.046982154E-2
1.722085601E0,-4.367686436E-2,-2.443460934E-2,-4.046982154E-2
1.724320342E0,-4.245513305E-2,-2.687807009E-2,-4.291328415E-2
1.726557891E0,-4.367686436E-2,-2.672535367E-2,-4.413501546E-2
1.728794707E0,-4.382958263E-2,-3.283400834E-2,-4.780020565E-2
1.731031462E0,-4.505131021E-2,-3.649919853E-2,-5.024366826E-2
1.733267180E0,-4.276056588E-2,-4.016438872E-2,-4.902193695E-2
1.735503752E0,-4.413501546E-2,-4.627304152E-2,-5.283984542E-2
1.737741057E0,-4.657847434E-2,-4.612032697E-2,-5.406157300E-2
1.739976409E0,-4.306599870E-2,-5.467243865E-2,-5.283984542E-2
1.742209502E0,-4.688390717E-2,-6.078109145E-2,-5.283984542E-2
1.744436431E0,-4.948008433E-2,-6.673702598E-2,-5.161811411E-2
1.746684661E0,-5.085453019E-2,-7.391469181E-2,-5.421429127E-2
1.748921660E0,-4.474587739E-2,-8.261952549E-2,-5.299255997E-2
1.751156096E0,-4.352414981E-2,-8.384125680E-2,-5.421429127E-2
1.753376677E0,-4.123340547E-2,-8.628471941E-2,-5.161811411E-2
1.755631377E0,-3.756821156E-2,-8.888089657E-2,-5.283984542E-2
1.757866790E0,-3.634648025E-2,-9.010262042E-2,-5.161811411E-2
1.760107329E0,-3.512475267E-2,-8.888089657E-2,-4.917465150E-2
1.762339080E0,-2.901609987E-2,-9.147707373E-2,-4.795292020E-2
1.764572844E0,-2.412917651E-2,-8.903361112E-2,-4.550946131E-2
1.766802336E0,-2.046398632E-2,-9.040805697E-2,-4.413501546E-2
1.769048186E0,-1.908953860E-2,-8.918632567E-2,-4.169155285E-2
1.771282072E0,-1.298088674E-2,-8.811730891E-2,-3.802636266E-2
1.773512236E0,-1.175915636E-2,-8.689557761E-2,-3.436116874E-2
1.775757170E0,-1.191187184E-2,-8.811730891E-2,-2.947424725E-2
1.777993438E0,-6.872233935E-3,-8.460483700E-2,-2.321287990E-2
1.780232573E0,-8.093964309E-3,-8.216137439E-2,-1.710422710E-2
1.782466155E0,-1.832595794E-3,-7.620543987E-2,-1.343903504E-2
1.784702422E0,-4.581489484E-4,-6.765332818E-2,-8.399397135E-3
1.786938567E0,-4.581489484E-4,-6.169738993E-2,-3.512475174E-3
1.789172392E0,-3.054326226E-4,-5.436700583E-2,2.596177394E-3
1.791400420E0,1.069014193E-3,-4.581489414E-2,8.857546374E-3
1.793647856E0,1.069014193E-3,-3.985895589E-2,1.740965992E-2
1.795885100E0,1.374446787E-3,-2.886338346E-2,2.351831272E-2
1.798123076E0,2.596177394E-3,-2.168571576E-2,2.733621933E-2
1.800357817E0,1.527163084E-3,-1.557706390E-2,2.977968007E-2
1.802598662E0,-9.162978968E-4,-9.468411095E-3,3.588833287E-2
1.804829070E0,-7.635815418E-4,-5.803219974E-3,3.711006418E-2
1.807065581E0,-1.832595794E-3,3.970623948E-3,3.955352306E-2
1.809301299E0,-1.679879380E-3,1.237002108E-2,4.444044828E-2
1.811538176E0,-2.901609987E-3,1.725694351E-2,4.444044828E-2
1.813774504E0,-2.748893574E-3,2.092213556E-2,4.337143153E-2
1.816010282E0,-5.039638374E-3,2.825251780E-2,4.581489414E-2
1.818243986E0,-5.039638374E-3,3.191770986E-2,4.459316283E-2
1.820471709E0,-4.886921961E-3,3.436116874E-2,4.581489414E-2
1.822719573E0,-8.552113548E-3,3.680463135E-2,4.214970022E-2
1.824956145E0,-8.552113548E-3,3.924809024E-2,4.214970022E-2
1.827196074E0,-1.099557430E-2,4.046982154E-2,4.459316283E-2
1.829428618E0,-1.343903504E-2,4.062253982E-2,4.199698567E-2
1.831665068E0,-1.221730467E-2,3.924809024E-2,3.955352306E-2
1.833900724E0,-1.221730467E-2,4.046982154E-2,3.588833287E-2
1.836137541E0,-1.710422710E-2,3.695734590E-2,3.466660157E-2
1.838373748E0,-1.832595654E-2,3.817907721E-2,3.100141138E-2
1.840610015E0,-1.710422710E-2,3.451388702E-2,2.855795063E-2
1.842846770E0,-1.832595654E-2,3.451388702E-2,2.489275858E-2
1.845083770E0,-1.954768784E-2,3.344487399E-2,2.244929783E-2
1.847318938E0,-1.588249579E-2,3.207042441E-2,2.000583708E-2
1.849555205E0,-1.466076635E-2,2.962696366E-2,1.634064503E-2
1.851791288E0,-1.481348183E-2,2.474004216E-2,1.389718428E-2
1.854027922E0,-1.114829071E-2,2.351831272E-2,1.023199316E-2
1.856261320E0,-8.704829961E-3,1.863138936E-2,1.023199316E-2
1.858488860E0,-8.704829961E-3,1.496619824E-2,6.566801574E-3
1.860737151E0,-6.414085161E-3,1.130100712E-2,6.566801574E-3
1.862974150E0,-3.970623948E-3,3.970623948E-3,2.901609987E-3
1.865212493E0,-7.788531948E-3,4.581489484E-4,1.527163084E-3
1.867446807E0,-7.788531948E-3,-3.207042580E-3,-9.162978968E-4
1.869681670E0,-6.719517522E-3,-6.872233935E-3,-4.581489135E-3
1.871915373E0,-4.276056774E-3,-1.298088674E-2,-4.581489135E-3
1.874139861E0,-6.872233935E-3,-1.420261711E-2,-5.803219974E-3
1.876380034E0,-8.093964309E-3,-1.298088674E-2,-5.803219974E-3
1.878627776E0,-8.093964309E-3,-1.893682219E-2,-3.359758761E-3
1.880867643E0,-1.191187184E-2,-2.138028294E-2,-5.955935922E-3
1.883103178E0,-1.191187184E-2,-2.260201424E-2,-5.955935922E-3
1.885335539E0,-8.246680722E-3,-2.504547499E-2,-9.162978968E-4
1.887569610E0,-1.069014147E-2,-2.260201424E-2,-1.069014193E-3
1.889808501E0,-1.069014147E-2,-2.015855350E-2,-3.359758761E-3
1.892044218E0,-1.175915636E-2,-1.771509275E-2,-2.138028387E-3
1.894279082E0,-1.313360315E-2,-1.771509275E-2,1.527163113E-4
1.896518218E0,-1.053742506E-2,-1.527163107E-2,-9.162978968E-4
1.898755278E0,-1.160643995E-2,-9.162978269E-3,-9.162978968E-4
1.900991240E0,-1.282817032E-2,-5.497787148E-3,2.748893574E-3
1.903226348E0,-1.389718428E-2,1.679879380E-3,3.970623948E-3
1.905462676E0,-1.389718428E-2,2.901609987E-3,2.748893574E-3
1.907699248E0,-1.389718428E-2,7.788531948E-3,5.192354787E-3
1.909935698E0,-1.496619824E-2,1.389718428E-2,7.635815535E-3
1.912169096E0,-1.481348183E-2,2.000583708E-2,1.130100712E-2
1.914397124E0,-1.603521220E-2,2.489275858E-2,1.389718428E-2
1.916645842E0,-1.466076635E-2,2.840523422E-2,1.634064503E-2
1.918880950E0,-1.710422710E-2,3.451388702E-2,1.756237634E-2
1.921120085E0,-1.710422710E-2,3.451388702E-2,1.756237634E-2
1.923352996E0,-1.450804994E-2,3.817907721E-2,2.000583708E-2
1.925589629E0,-1.572977938E-2,3.940080851E-2,2.122756653E-2
1.927825957E0,-1.206458826E-2,4.046982154E-2,2.000583708E-2
1.930062407E0,-1.084285788E-2,4.046982154E-2,2.122756653E-2
1.932300016E0,-1.206458826E-2,3.695734590E-2,2.122756653E-2
1.934539397E0,-1.343903504E-2,3.573561832E-2,2.244929783E-2
1.936771575E0,-1.221730467E-2,3.451388702E-2,2.122756653E-2
1.939008574E0,-7.330383174E-3,3.069597855E-2,2.122756653E-2
1.941242888E0,-8.552113548E-3,2.718350291E-2,2.000583708E-2
1.943480315E0,-1.007927675E-2,1.740965992E-2,2.244929783E-2
1.945716338E0,-8.857546374E-3,1.374446787E-2,2.244929783E-2
1.947952788E0,-1.023199316E-2,1.007927675E-2,2.122756653E-2
1.950189726E0,-5.345070735E-3,7.635815535E-3,2.367102914E-2
1.952423369E0,-2.901609987E-3,3.970623948E-3,2.122756653E-2
1.954649993E0,6.108652451E-4,1.374446787E-3,2.367102914E-2
1.956897979E0,-6.108652451E-4,3.054326226E-4,2.244929783E-2
1.959134368E0,-6.108652451E-4,-5.803219974E-3,2.244929783E-2
1.961373686E0,4.123340361E-3,-1.313360315E-2,2.367102914E-2
1.963607268E0,3.970623948E-3,-1.679879427E-2,2.122756653E-2
1.965843291E0,6.414085161E-3,-2.168571576E-2,2.000583708E-2
1.968079985E0,6.414085161E-3,-2.290744707E-2,2.000583708E-2
1.970317229E0,1.007927675E-2,-2.550362423E-2,1.756237634E-2
1.972552581E0,1.252273750E-2,-2.550362423E-2,1.634064503E-2
1.974788665E0,1.863138936E-2,-2.916881628E-2,1.634064503E-2
1.977024688E0,1.481348183E-2,-3.039054573E-2,1.634064503E-2
1.979261199E0,1.603521220E-2,-3.039054573E-2,1.389718428E-2
1.981497344E0,1.863138936E-2,-2.687807009E-2,1.267545391E-2
1.983733733E0,1.740965992E-2,-2.672535367E-2,1.267545391E-2
1.985970488E0,1.740965992E-2,-2.916881628E-2,1.023199316E-2
1.988206267E0,1.618792862E-2,-3.039054573E-2,6.566801574E-3
1.990438323E0,1.496619824E-2,-2.794708498E-2,6.566801574E-3
1.992678984E0,1.252273750E-2,-2.916881628E-2,5.345070735E-3
1.994915130E0,1.496619824E-2,-2.916881628E-2,4.123340361E-3
1.997152800E0,1.130100712E-2,-2.916881628E-2,1.679879380E-3
1.999387969E0,1.023199316E-2,-2.428189293E-2,4.581489484E-4
2.001624114E0,6.414085161E-3,-2.290744707E-2,2.901609987E-3
2.003860930E0,5.192354787E-3,-2.535090782E-2,1.527163084E-3
2.006097991E0,2.748893574E-3,-2.412917651E-2,2.748893574E-3
2.008333586E0,3.054326226E-4,-2.046398632E-2,6.414085161E-3
2.010570403E0,-2.138028387E-3,-2.031126991E-2,3.970623948E-3
2.012805755E0,-9.468411095E-3,-2.015855350E-2,6.414085161E-3
2.015042327E0,-1.069014147E-2,-1.771509275E-2,8.857546374E-3
2.017276763E0,-1.435533352E-2,-1.404990070E-2,8.857546374E-3
2.019508086E0,-1.679879427E-2,-1.282817032E-2,8.704829961E-3
2.021751250E0,-2.153299935E-2,-9.010262787E-3,9.926560335E-3
2.023988311E0,-2.275473066E-2,-7.788531948E-3,1.237002108E-2
2.026225310E0,-2.275473066E-2,-5.345070735E-3,1.481348183E-2
2.028459807E0,-2.397646010E-2,-1.679879380E-3,1.603521220E-2
2.030696073E0,-2.626720630E-2,1.985311974E-3,1.725694351E-2
2.032932463E0,-2.748893574E-2,4.428773187E-3,1.847867295E-2
2.035169036E0,-2.626720630E-2,5.650503561E-3,1.740965992E-2
2.037401153E0,-2.504547499E-2,9.162978269E-3,2.229658142E-2
2.039626128E0,-2.260201424E-2,7.941247895E-3,2.107485011E-2
2.041878997E0,-2.367102914E-2,1.038470957E-2,1.985312067E-2
2.044114348E0,-2.000583708E-2,7.941247895E-3,1.985312067E-2
2.046354338E0,-2.489275858E-2,1.160643995E-2,2.107485011E-2
2.048586454E0,-2.244929783E-2,1.160643995E-2,1.985312067E-2
2.050823027E0,-2.122756653E-2,9.162978269E-3,1.985312067E-2
2.053059416E0,-2.138028294E-2,5.497787148E-3,1.985312067E-2
2.055292754E0,-1.893682219E-2,6.719517522E-3,1.985312067E-2
2.057520354E0,-1.756237634E-2,7.941247895E-3,1.985312067E-2
2.059769377E0,-1.649336144E-2,4.276056774E-3,2.107485011E-2
2.062005095E0,-1.267545391E-2,6.566801574E-3,2.229658142E-2
2.064245512E0,-7.941247895E-3,2.901609987E-3,2.244929783E-2
2.066472502E0,-6.566801574E-3,3.970623948E-3,2.122756653E-2
2.068695098E0,-2.901609987E-3,3.970623948E-3,2.244929783E-2
2.070949369E0,1.985311974E-3,7.483099122E-3,2.244929783E-2
2.073183134E0,1.985311974E-3,5.039638374E-3,2.122756653E-2
2.075415617E0,5.650503561E-3,5.039638374E-3,2.122756653E-2
2.077660002E0,9.315694682E-3,3.665191587E-3,2.000583708E-2
2.079895354E0,1.313360315E-2,7.330383174E-3,2.015855350E-2
2.082132354E0,1.802052557E-2,5.955935922E-3,2.138028294E-2
2.084352507E0,1.664607786E-2,1.069014193E-3,2.015855350E-2
2.086592070E0,1.924225502E-2,1.069014193E-3,2.015855350E-2
2.088839872E0,2.290744707E-2,3.512475174E-3,2.138028294E-2
2.091079497E0,2.046398632E-2,4.734205548E-3,2.382374369E-2
2.093316314E0,2.290744707E-2,5.803219974E-3,2.138028294E-2
2.095550444E0,2.535090782E-2,4.581489135E-3,2.504547499E-2
2.097785735E0,2.535090782E-2,2.138028387E-3,2.626720630E-2
2.100021819E0,2.535090782E-2,5.803219974E-3,2.886338346E-2
2.102258086E0,2.535090782E-2,2.138028387E-3,2.993239649E-2
2.104491423E0,2.397646010E-2,2.138028387E-3,3.237585723E-2
2.106718840E0,2.657263726E-2,4.581489135E-3,3.375030309E-2
2.108967070E0,2.535090782E-2,5.803219974E-3,3.619376570E-2
2.111203154E0,2.412917651E-2,1.069014147E-2,3.863722831E-2
2.113441558E0,2.290744707E-2,7.024950348E-3,3.741549700E-2
2.115676116E0,2.168571576E-2,1.191187184E-2,3.741549700E-2
2.117912444E0,2.046398632E-2,1.069014147E-2,3.863722831E-2
2.120149016E0,2.046398632E-2,1.069014147E-2,3.726277873E-2
2.122381865E0,2.183843218E-2,1.435533352E-2,3.619376570E-2
2.124606474E0,1.924225502E-2,1.206458826E-2,3.726277873E-2
2.126845793E0,2.183843218E-2,1.435533352E-2,3.619376570E-2
2.129094389E0,1.802052557E-2,1.206458826E-2,3.481931984E-2
2.131331633E0,1.695151068E-2,1.450804994E-2,3.481931984E-2
2.133558684E0,1.802052557E-2,1.328631863E-2,3.359758854E-2
2.135802825E0,1.557706390E-2,8.399397135E-3,3.359758854E-2
2.138039031E0,1.557706390E-2,9.621127509E-3,3.115412779E-2
2.140277922E0,1.069014147E-2,8.552113548E-3,2.993239649E-2
2.142511748E0,1.313360315E-2,9.621127509E-3,2.748893574E-2
2.144747771E0,1.053742506E-2,6.108652335E-3,2.748893574E-2
2.146984526E0,1.313360315E-2,6.108652335E-3,2.626720630E-2
2.149221770E0,8.093964309E-3,1.374446787E-3,2.122756653E-2
2.151456328E0,8.093964309E-3,-1.069014193E-3,2.000583708E-2
2.153689971E0,8.093964309E-3,1.527163113E-4,1.878410578E-2
2.155928985E0,7.941247895E-3,-7.177666761E-3,1.756237634E-2
2.158165801E0,6.719517522E-3,-9.621127509E-3,1.389718428E-2
2.160402983E0,6.719517522E-3,-1.206458826E-2,1.145372353E-2
2.162638518E0,6.566801574E-3,-1.572977938E-2,9.010262787E-3
2.164871916E0,5.345070735E-3,-1.679879427E-2,6.566801574E-3
2.167097441E0,2.901609987E-3,-1.924225502E-2,5.192354787E-3
2.169335601E0,5.192354787E-3,-2.290744707E-2,5.192354787E-3
2.171584075E0,7.635815535E-3,-2.412917651E-2,2.901609987E-3
2.173822600E0,1.007927675E-2,-2.550362423E-2,4.581489484E-4
2.176059477E0,6.414085161E-3,-2.657263726E-2,1.527163084E-3
2.178292693E0,7.635815535E-3,-2.657263726E-2,-9.162978968E-4
2.180528899E0,1.267545391E-2,-2.183843218E-2,-1.985311974E-3
2.182762541E0,1.267545391E-2,-2.428189293E-2,-5.650503561E-3
2.184990996E0,1.649336144E-2,-2.183843218E-2,-6.872233935E-3
2.187234831E0,1.527163107E-2,-1.832595654E-2,-6.872233935E-3
2.189458525E0,1.527163107E-2,-1.466076635E-2,-4.428773187E-3
2.191699248E0,2.031126991E-2,-1.466076635E-2,-6.872233935E-3
2.193946868E0,1.786780916E-2,-1.343903504E-2,-6.872233935E-3
2.196186187E0,2.153299935E-2,-1.114829071E-2,-4.276056774E-3
2.198422759E0,1.908953860E-2,-9.773843922E-3,-5.650503561E-3
2.200656096E0,1.679879427E-2,-4.886921961E-3,-8.093964309E-3
2.202893096E0,1.924225502E-2,-3.817907767E-3,-4.276056774E-3
2.205128264E0,1.924225502E-2,-2.596177394E-3,-5.497787148E-3
2.207364592E0,1.802052557E-2,-2.596177394E-3,-7.941247895E-3
2.209600860E0,1.557706390E-2,-0.000000000E0,-6.719517522E-3
2.211837249E0,9.468411095E-3,-2.290744567E-3,-6.872233935E-3
2.214073638E0,7.024950348E-3,-3.512475174E-3,-6.872233935E-3
2.216307097E0,6.719517522E-3,-1.084285788E-2,-5.650503561E-3
2.218531462E0,3.054326167E-3,-9.468411095E-3,-5.650503561E-3
2.220771331E0,6.108652451E-4,-1.435533352E-2,-5.803219974E-3
2.223019072E0,-7.635815418E-4,-1.679879427E-2,-4.581489135E-3
2.225259184E0,-4.428773187E-3,-1.908953860E-2,-5.803219974E-3
2.227494291E0,-7.635815418E-4,-1.908953860E-2,-3.359758761E-3
2.229727690E0,-3.207042580E-3,-1.786780916E-2,-4.581489135E-3
2.231964141E0,-8.093964309E-3,-1.893682219E-2,-4.581489135E-3
2.234200286E0,-8.093964309E-3,-1.420261711E-2,-2.138028387E-3
2.236437102E0,-4.428773187E-3,-1.298088674E-2,-9.162978968E-4
2.238673796E0,6.108652451E-4,-1.069014147E-2,-9.162978968E-4
2.240909270E0,-1.832595794E-3,-1.191187184E-2,3.054326226E-4
2.243145537E0,1.985311974E-3,-5.803219974E-3,4.581489484E-4
2.245381682E0,-4.581489484E-4,-3.359758761E-3,1.679879380E-3
2.247618315E0,-1.679879380E-3,-4.581489135E-3,2.748893574E-3
2.249854766E0,-1.679879380E-3,-9.162978968E-4,-7.635815418E-4
2.252087614E0,-1.679879380E-3,-3.359758761E-3,3.054326226E-4
2.254312713E0,-4.581489484E-4,-2.138028387E-3,-1.985311974E-3
2.256554229E0,-4.123340361E-3,3.054326226E-4,-2.138028387E-3
2.258799956E0,-5.345070735E-3,1.527163084E-3,-3.359758761E-3
2.261039213E0,-5.345070735E-3,-9.162978968E-4,-2.138028387E-3
2.263274565E0,-1.023199316E-2,4.581489484E-4,-3.359758761E-3
2.265508635E0,-1.404990070E-2,-1.832595794E-3,-2.138028387E-3
2.267745146E0,-1.649336144E-2,-6.719517522E-3,-3.359758761E-3
2.269981352E0,-1.908953860E-2,-1.023199316E-2,-1.069014193E-3
2.272215239E0,-2.412917651E-2,-1.634064503E-2,-1.069014193E-3
2.274443450E0,-2.535090782E-2,-1.496619824E-2,-3.512475174E-3
2.276690459E0,-2.916881628E-2,-2.107485011E-2,-3.665191587E-3
2.278926299E0,-3.039054573E-2,-2.580905706E-2,-3.665191587E-3
2.281165495E0,-3.420845419E-2,-2.825251780E-2,0.000000000E0
2.283398039E0,-3.802636266E-2,-3.543018550E-2,-2.443460980E-3
2.285632353E0,-3.573561832E-2,-3.909537569E-2,0.000000000E0
2.287873381E0,-3.940080851E-2,-4.382958263E-2,1.069014193E-3
2.290108550E0,-3.955352306E-2,-4.627304152E-2,1.069014193E-3
2.292346464E0,-3.833179548E-2,-4.749477282E-2,2.290744567E-3
2.294580718E0,-3.833179548E-2,-4.627304152E-2,3.512475174E-3
2.296817961E0,-3.466660157E-2,-4.398229718E-2,7.330383174E-3
2.299053191E0,-3.222314268E-2,-4.642575979E-2,7.330383174E-3
2.301289336E0,-2.596177347E-2,-4.169155285E-2,9.773843922E-3
2.303525664E0,-2.474004216E-2,-3.924809024E-2,1.343903504E-2
2.305761992E0,-1.970040426E-2,-3.451388702E-2,1.237002108E-2
2.307998930E0,-1.481348183E-2,-3.466660157E-2,1.603521220E-2
2.310235930E0,-8.552113548E-3,-3.115412779E-2,1.863138936E-2
2.312471343E0,-5.955935922E-3,-2.626720630E-2,2.229658142E-2
2.314707610E0,-2.290744567E-3,-2.641992271E-2,2.351831272E-2
2.316943633E0,1.374446787E-3,-2.397646010E-2,2.351831272E-2
2.319179961E0,3.817907767E-3,-2.412917651E-2,2.855795063E-2
2.321413359E0,6.414085161E-3,-2.046398632E-2,2.611448988E-2
2.323640898E0,5.192354787E-3,-1.679879427E-2,2.855795063E-2
2.325889311E0,7.635815535E-3,-1.817324013E-2,2.733621933E-2
2.328126616E0,1.252273750E-2,-1.695151068E-2,2.733621933E-2
2.330364776E0,1.130100712E-2,-1.695151068E-2,2.855795063E-2
2.332593169E0,6.414085161E-3,-1.802052557E-2,2.855795063E-2
2.334815642E0,7.635815535E-3,-1.817324013E-2,2.611448988E-2
2.337070342E0,5.192354787E-3,-1.802052557E-2,2.611448988E-2
2.339306975E0,5.192354787E-3,-1.679879427E-2,2.611448988E-2
2.341547636E0,5.192354787E-3,-1.679879427E-2,2.733621933E-2
2.343779936E0,3.970623948E-3,-1.802052557E-2,2.489275858E-2
2.346016875E0,2.901609987E-3,-1.435533352E-2,2.244929783E-2
2.348252043E0,2.901609987E-3,-1.313360315E-2,2.367102914E-2
2.350489654E0,3.970623948E-3,-1.679879427E-2,2.244929783E-2
2.352729155E0,1.679879380E-3,-1.435533352E-2,2.000583708E-2
2.354958586E0,-7.635815418E-4,-1.313360315E-2,1.878410578E-2
2.357197295E0,-7.635815418E-4,-1.313360315E-2,1.634064503E-2
2.359432158E0,-1.985311974E-3,-1.191187184E-2,1.374446787E-2
2.361671171E0,-7.635815418E-4,-1.435533352E-2,1.374446787E-2
2.363907622E0,-7.635815418E-4,-1.191187184E-2,1.389718428E-2
2.366143218E0,1.832595794E-3,-9.468411095E-3,1.389718428E-2
2.368379912E0,3.054326167E-3,-1.069014147E-2,1.145372353E-2
2.370612090E0,1.679879380E-3,-1.191187184E-2,1.145372353E-2
2.372836882E0,4.276056774E-3,-1.069014147E-2,1.267545391E-2
2.375072783E0,6.719517522E-3,-1.206458826E-2,1.145372353E-2
2.377312346E0,5.345070735E-3,-1.313360315E-2,1.145372353E-2
2.379563750E0,4.123340361E-3,-1.313360315E-2,1.023199316E-2
2.381800688E0,6.719517522E-3,-9.621127509E-3,9.010262787E-3
2.384036222E0,5.497787148E-3,-1.206458826E-2,1.023199316E-2
2.386269316E0,6.719517522E-3,-8.399397135E-3,1.023199316E-2
2.388502593E0,7.941247895E-3,-1.084285788E-2,1.023199316E-2
2.390730498E0,6.719517522E-3,-1.084285788E-2,9.010262787E-3
2.392978362E0,7.941247895E-3,-1.084285788E-2,9.010262787E-3
2.395214690E0,9.162978269E-3,-1.084285788E-2,1.145372353E-2
2.397454131E0,1.160643995E-2,-1.328631863E-2,1.023199316E-2
2.399688323E0,1.160643995E-2,-1.084285788E-2,1.023199316E-2
2.401923674E0,1.160643995E-2,-1.084285788E-2,1.267545391E-2
2.404160002E0,1.282817032E-2,-1.206458826E-2,1.145372353E-2
2.406396026E0,1.527163107E-2,-1.221730467E-2,1.023199316E-2
2.408632415E0,1.542434748E-2,-8.552113548E-3,1.023199316E-2
2.410868865E0,1.908953860E-2,-5.039638374E-3,1.404990070E-2
2.413104766E0,2.275473066E-2,-3.817907767E-3,1.160643995E-2
2.415341643E0,2.290744707E-2,-1.527163113E-4,1.160643995E-2
2.417575652E0,2.412917651E-2,-1.527163113E-4,1.282817032E-2
2.419802092E0,2.672535367E-2,3.359758761E-3,1.160643995E-2
2.422048125E0,2.672535367E-2,7.024950348E-3,1.160643995E-2
2.424278411E0,2.672535367E-2,7.024950348E-3,1.038470957E-2
2.426525970E0,2.687807009E-2,1.191187184E-2,1.175915636E-2
2.428759124E0,2.932153270E-2,1.542434748E-2,8.093964309E-3
2.430997466E0,2.703078650E-2,1.908953860E-2,8.093964309E-3
2.433232268E0,2.703078650E-2,2.397646010E-2,1.053742506E-2
2.435469390E0,2.580905706E-2,2.519819140E-2,1.053742506E-2
2.437704924E0,2.474004216E-2,3.130684420E-2,1.175915636E-2
2.439941741E0,2.351831272E-2,3.375030309E-2,1.053742506E-2
2.442174223E0,1.740965992E-2,3.390302137E-2,1.175915636E-2
2.444402129E0,1.740965992E-2,3.390302137E-2,1.053742506E-2
2.446649443E0,1.740965992E-2,3.512475267E-2,1.053742506E-2
2.448885771E0,1.740965992E-2,3.634648025E-2,1.175915636E-2
2.451125395E0,1.374446787E-2,3.512475267E-2,1.298088674E-2
2.453356413E0,1.252273750E-2,3.283400834E-2,1.160643995E-2
2.455579192E0,1.130100712E-2,3.405573592E-2,1.160643995E-2
2.457816497E0,8.704829961E-3,2.916881628E-2,9.162978269E-3
2.460067473E0,6.261368748E-3,2.565634064E-2,7.941247895E-3
2.462306791E0,3.817907767E-3,2.565634064E-2,7.941247895E-3
2.464543791E0,2.443460980E-3,2.199114859E-2,9.162978269E-3
2.466776396E0,-1.221730490E-3,2.336559631E-2,6.566801574E-3
2.469013091E0,-2.596177394E-3,1.847867295E-2,5.345070735E-3
2.471247526E0,-1.527163113E-4,1.725694351E-2,5.345070735E-3
2.473474211E0,-1.527163113E-4,1.725694351E-2,6.566801574E-3
2.475721831E0,-1.527163113E-4,1.725694351E-2,2.901609987E-3
2.477957976E0,-1.374446787E-3,1.114829071E-2,4.123340361E-3
2.480197051E0,2.290744567E-3,1.114829071E-2,4.123340361E-3
2.482430938E0,2.290744567E-3,1.114829071E-2,1.679879380E-3
2.484663786E0,5.955935922E-3,1.099557430E-2,2.901609987E-3
2.486891753E0,7.177666761E-3,9.773843922E-3,4.581489484E-4
2.489140654E0,8.399397135E-3,6.108652335E-3,-7.635815418E-4
2.491373259E0,1.069014147E-2,2.443460980E-3,4.581489484E-4
2.493603910E0,1.191187184E-2,3.665191587E-3,1.679879380E-3
2.495848479E0,1.191187184E-2,3.665191587E-3,3.054326167E-3
2.498085051E0,1.435533352E-2,-0.000000000E0,1.832595794E-3
2.500324125E0,1.435533352E-2,-0.000000000E0,1.832595794E-3
2.502557097E0,1.435533352E-2,-0.000000000E0,3.054326167E-3
2.504793791E0,1.313360315E-2,1.221730490E-3,3.054326167E-3
2.507031340E0,1.313360315E-2,-0.000000000E0,2.901609987E-3
2.509266997E0,1.420261711E-2,-3.665191587E-3,4.123340361E-3
2.511503813E0,1.420261711E-2,-6.108652335E-3,4.123340361E-3
2.513738799E0,1.435533352E-2,-2.443460980E-3,4.276056774E-3
2.515975371E0,1.542434748E-2,-3.665191587E-3,6.719517522E-3
2.518211455E0,1.298088674E-2,-3.665191587E-3,5.345070735E-3
2.520444182E0,1.435533352E-2,-1.221730490E-3,5.497787148E-3
2.522666960E0,1.313360315E-2,-1.221730490E-3,5.345070735E-3
2.524909453E0,1.191187184E-2,-0.000000000E0,5.345070735E-3
2.527156829E0,1.053742506E-2,-2.443460980E-3,5.345070735E-3
2.529396758E0,1.175915636E-2,-4.886921961E-3,6.566801574E-3
2.531632231E0,9.315694682E-3,-3.512475174E-3,2.901609987E-3
2.533865813E0,5.650503561E-3,-3.512475174E-3,4.123340361E-3
2.536102080E0,4.428773187E-3,1.527163113E-4,6.566801574E-3
2.538338225E0,3.207042580E-3,-3.512475174E-3,6.566801574E-3
2.540575041E0,3.207042580E-3,-3.512475174E-3,6.566801574E-3
2.542812041E0,1.985311974E-3,1.527163113E-4,7.788531948E-3
2.545047209E0,-3.054326226E-4,5.039638374E-3,7.788531948E-3
2.547283538E0,-1.527163084E-3,5.192354787E-3,9.010262787E-3
2.549515410E0,9.162978968E-4,5.039638374E-3,9.010262787E-3
2.551738616E0,-4.123340361E-3,2.748893574E-3,9.010262787E-3
2.553992583E0,-2.901609987E-3,1.527163084E-3,9.010262787E-3
2.556229033E0,-2.901609987E-3,-2.138028387E-3,7.788531948E-3
2.558469816E0,-1.679879380E-3,-3.359758761E-3,6.566801574E-3
2.560702483E0,-6.719517522E-3,-3.207042580E-3,5.192354787E-3
2.562937773E0,-6.719517522E-3,-4.428773187E-3,7.635815535E-3
2.565174102E0,-6.719517522E-3,-4.428773187E-3,8.857546374E-3
2.567409942E0,-9.315694682E-3,-9.315694682E-3,7.635815535E-3
2.569646453E0,-1.053742506E-2,-1.160643995E-2,7.635815535E-3
2.571882659E0,-6.872233935E-3,-1.175915636E-2,8.857546374E-3
2.574119536E0,-8.093964309E-3,-1.175915636E-2,7.635815535E-3
2.576356108E0,-8.093964309E-3,-1.420261711E-2,8.857546374E-3
2.578593230E0,-9.315694682E-3,-1.298088674E-2,1.007927675E-2
2.580828642E0,-6.872233935E-3,-1.420261711E-2,1.007927675E-2
2.583065459E0,-8.093964309E-3,-1.298088674E-2,7.635815535E-3
2.585300567E0,-3.207042580E-3,-1.420261711E-2,7.635815535E-3
2.587534148E0,-5.650503561E-3,-1.175915636E-2,1.007927675E-2
2.589761260E0,-4.428773187E-3,-1.175915636E-2,7.635815535E-3
2.592008757E0,-5.650503561E-3,-1.298088674E-2,8.857546374E-3
2.594243010E0,-5.650503561E-3,-1.175915636E-2,1.007927675E-2
2.596486479E0,-8.093964309E-3,-8.093964309E-3,1.007927675E-2
2.598718840E0,-6.872233935E-3,-1.053742506E-2,1.130100712E-2
2.600955778E0,-6.872233935E-3,-8.093964309E-3,1.007927675E-2
2.603191192E0,-6.719517522E-3,-5.650503561E-3,1.252273750E-2
2.605427520E0,-6.719517522E-3,-3.207042580E-3,1.618792862E-2
2.607663909E0,-7.788531948E-3,2.901609987E-3,1.634064503E-2
2.609900237E0,-6.566801574E-3,5.192354787E-3,1.878410578E-2
2.612134123E0,-9.010262787E-3,1.007927675E-2,1.878410578E-2
2.614362151E0,-1.145372353E-2,1.023199316E-2,2.000583708E-2
2.616606352E0,-8.857546374E-3,1.374446787E-2,2.000583708E-2
2.618834014E0,-8.857546374E-3,1.740965992E-2,2.122756653E-2
2.621084562E0,-1.007927675E-2,1.863138936E-2,2.000583708E-2
2.623318206E0,-1.496619824E-2,2.000583708E-2,2.122756653E-2
2.625557402E0,-1.114829071E-2,1.985312067E-2,1.878410578E-2
2.627790862E0,-1.114829071E-2,2.107485011E-2,1.878410578E-2
2.630027434E0,-1.114829071E-2,2.229658142E-2,1.756237634E-2
2.632261443E0,-1.237002108E-2,2.351831272E-2,1.511891466E-2
2.634487578E0,-1.252273750E-2,1.740965992E-2,1.389718428E-2
2.636735869E0,-9.926560335E-3,1.863138936E-2,1.511891466E-2
2.638971952E0,-9.773843922E-3,2.596177347E-2,1.634064503E-2
2.641211638E0,-1.114829071E-2,2.596177347E-2,1.634064503E-2
2.643445098E0,-1.359175146E-2,2.351831272E-2,1.511891466E-2
2.645680999E0,-1.481348183E-2,2.351831272E-2,1.511891466E-2
2.647917876E0,-1.985312067E-2,1.756237634E-2,1.374446787E-2
2.650155120E0,-2.107485011E-2,1.649336144E-2,1.374446787E-2
2.652388395E0,-1.985312067E-2,1.878410578E-2,1.496619824E-2
2.654614592E0,-1.634064503E-2,1.023199316E-2,1.618792862E-2
2.656848844E0,-1.618792862E-2,1.389718428E-2,1.618792862E-2
2.659098906E0,-1.130100712E-2,1.267545391E-2,1.618792862E-2
2.661337615E0,-6.414085161E-3,1.496619824E-2,1.511891466E-2
2.663572051E0,-3.817907767E-3,1.725694351E-2,1.634064503E-2
2.665793608E0,1.069014193E-3,1.725694351E-2,1.634064503E-2
2.668033782E0,4.734205548E-3,1.221730467E-2,1.511891466E-2
2.670280852E0,4.581489135E-3,1.114829071E-2,1.389718428E-2
2.672519865E0,5.955935922E-3,1.099557430E-2,1.267545391E-2
2.674755827E0,1.069014147E-2,8.552113548E-3,1.649336144E-2
2.676989348E0,9.468411095E-3,6.108652335E-3,1.511891466E-2
2.679226104E0,9.315694682E-3,2.443460980E-3,1.634064503E-2
2.681462614E0,8.093964309E-3,1.374446787E-3,1.511891466E-2
2.683698271E0,5.497787148E-3,-3.512475174E-3,1.634064503E-2
2.685924650E0,6.872233935E-3,-1.069014193E-3,2.000583708E-2
2.688175444E0,8.093964309E-3,1.374446787E-3,1.878410578E-2
2.690406950E0,9.162978269E-3,-3.512475174E-3,2.122756653E-2
2.692643706E0,7.941247895E-3,-7.177666761E-3,2.000583708E-2
2.694867216E0,7.941247895E-3,-3.512475174E-3,2.122756653E-2
2.697116484E0,6.719517522E-3,-3.512475174E-3,2.489275858E-2
2.699352629E0,6.719517522E-3,-7.177666761E-3,2.733621933E-2
2.701592376E0,5.345070735E-3,-8.399397135E-3,2.611448988E-2
2.703826201E0,5.497787148E-3,-4.734205548E-3,2.855795063E-2
2.706061553E0,6.566801574E-3,-7.177666761E-3,3.100141138E-2
2.708297637E0,6.719517522E-3,-4.734205548E-3,3.100141138E-2
2.710533965E0,5.497787148E-3,-4.734205548E-3,3.100141138E-2
2.712770354E0,5.345070735E-3,-5.955935922E-3,3.100141138E-2
2.715006926E0,4.123340361E-3,-7.177666761E-3,3.222314268E-2
2.717243010E0,4.276056774E-3,-3.512475174E-3,2.977968007E-2
2.719479826E0,5.345070735E-3,-7.177666761E-3,3.222314268E-2
2.721716155E0,5.497787148E-3,-2.290744567E-3,3.344487399E-2
2.723950591E0,9.162978269E-3,-1.221730490E-3,3.359758854E-2
2.726189482E0,6.719517522E-3,-2.290744567E-3,3.222314268E-2
2.728424407E0,6.719517522E-3,-1.069014193E-3,3.100141138E-2
2.730661467E0,5.650503561E-3,3.817907767E-3,3.344487399E-2
2.732894255E0,5.650503561E-3,3.817907767E-3,3.100141138E-2
2.735121672E0,5.650503561E-3,5.039638374E-3,2.977968007E-2
2.737370207E0,4.428773187E-3,2.596177394E-3,2.855795063E-2
2.739607207E0,5.650503561E-3,5.039638374E-3,2.733621933E-2
2.741845550E0,3.207042580E-3,6.261368748E-3,2.611448988E-2
2.744078704E0,1.985311974E-3,6.261368748E-3,2.489275858E-2
2.746315032E0,-4.581489484E-4,2.748893574E-3,2.244929783E-2
2.748549712E0,-4.581489484E-4,5.039638374E-3,2.122756653E-2
2.750780364E0,-4.581489484E-4,3.970623948E-3,1.756237634E-2
2.753023955E0,-1.832595794E-3,-9.162978968E-4,1.511891466E-2
2.755260588E0,-4.123340361E-3,1.527163084E-3,1.389718428E-2
2.757499724E0,-9.162978269E-3,4.581489484E-4,1.374446787E-2
2.759733000E0,-9.162978269E-3,-1.985311974E-3,1.130100712E-2
2.761969329E0,-1.404990070E-2,4.581489484E-4,1.007927675E-2
2.764205291E0,-1.160643995E-2,-7.635815418E-4,6.414085161E-3
2.766441680E0,-1.267545391E-2,4.581489484E-4,5.192354787E-3
2.768678008E0,-1.267545391E-2,4.123340361E-3,6.414085161E-3
2.770914397E0,-1.511891466E-2,1.832595794E-3,5.192354787E-3
2.773151274E0,-1.634064503E-2,6.566801574E-3,3.970623948E-3
2.775388335E0,-1.511891466E-2,6.566801574E-3,1.527163084E-3
2.777623625E0,-1.511891466E-2,5.345070735E-3,1.527163084E-3
2.779859709E0,-1.511891466E-2,6.566801574E-3,3.054326226E-4
2.782092986E0,-1.511891466E-2,5.345070735E-3,3.054326226E-4
2.784320403E0,-1.389718428E-2,1.679879380E-3,1.527163084E-3
2.786564665E0,-1.389718428E-2,5.345070735E-3,5.192354787E-3
2.788787871E0,-1.267545391E-2,4.123340361E-3,5.192354787E-3
2.791044646E0,-8.857546374E-3,7.635815535E-3,5.192354787E-3
2.793278838E0,-7.635815535E-3,7.635815535E-3,6.566801574E-3
2.795518522E0,-6.414085161E-3,7.635815535E-3,1.023199316E-2
2.797751311E0,-6.566801574E-3,7.635815535E-3,1.267545391E-2
2.799986358E0,-6.566801574E-3,6.414085161E-3,1.511891466E-2
2.802222075E0,-6.566801574E-3,7.635815535E-3,1.756237634E-2
2.804452666E0,-5.345070735E-3,5.192354787E-3,2.122756653E-2
2.806684661E0,-4.123340361E-3,7.635815535E-3,2.367102914E-2
2.808932158E0,-2.901609987E-3,6.414085161E-3,2.611448988E-2
2.811166533E0,-4.581489484E-4,5.039638374E-3,2.855795063E-2
2.813393644E0,-1.832595794E-3,2.748893574E-3,2.733621933E-2
2.815638334E0,-6.108652451E-4,1.527163084E-3,3.100141138E-2
2.817867522E0,6.108652451E-4,-2.138028387E-3,3.222314268E-2
2.820116729E0,2.901609987E-3,-5.955935922E-3,3.344487399E-2
2.822349639E0,4.276056774E-3,-3.512475174E-3,3.344487399E-2
2.824588286E0,7.941247895E-3,-4.734205548E-3,3.466660157E-2
2.826823332E0,1.038470957E-2,-1.221730490E-3,3.481931984E-2
2.829059661E0,1.282817032E-2,-3.665191587E-3,3.481931984E-2
2.831292021E0,1.160643995E-2,-6.108652335E-3,3.481931984E-2
2.833518950E0,1.389718428E-2,-7.330383174E-3,3.604105115E-2
2.835764372E0,1.404990070E-2,-4.886921961E-3,3.481931984E-2
2.837991790E0,1.649336144E-2,-6.108652335E-3,3.359758854E-2
2.840243316E0,1.786780916E-2,-1.374446787E-3,3.115412779E-2
2.842476348E0,2.015855350E-2,-3.817907767E-3,3.237585723E-2
2.844715971E0,1.527163107E-2,-1.221730490E-3,3.359758854E-2
2.846949980E0,1.649336144E-2,-2.443460980E-3,3.359758854E-2
2.849185332E0,1.908953860E-2,1.069014193E-3,3.237585723E-2
2.851418486E0,1.924225502E-2,7.177666761E-3,3.237585723E-2
2.853643217E0,1.542434748E-2,5.955935922E-3,3.359758854E-2
2.855883818E0,1.557706390E-2,8.399397135E-3,3.359758854E-2
2.858130461E0,1.313360315E-2,1.328631863E-2,3.359758854E-2
2.860369781E0,1.695151068E-2,1.450804994E-2,3.237585723E-2
2.862606230E0,1.572977938E-2,1.939497143E-2,3.359758854E-2
2.864842070E0,1.328631863E-2,2.061670274E-2,3.115412779E-2
2.867081694E0,1.221730467E-2,2.428189293E-2,3.115412779E-2
2.869310332E0,1.099557430E-2,2.428189293E-2,2.993239649E-2
2.871533476E0,9.773843922E-3,2.672535367E-2,2.748893574E-2
2.873768767E0,7.177666761E-3,2.199114859E-2,2.504547499E-2
2.876009307E0,8.552113548E-3,2.321287990E-2,2.382374369E-2
2.878260345E0,3.665191587E-3,2.321287990E-2,2.382374369E-2
2.880496977E0,1.069014193E-3,1.847867295E-2,2.122756653E-2
2.882733366E0,1.069014193E-3,1.603521220E-2,1.878410578E-2
2.884963225E0,-3.054326226E-4,1.114829071E-2,1.634064503E-2
2.887202727E0,-1.679879380E-3,6.414085161E-3,1.878410578E-2
2.889438689E0,-5.497787148E-3,1.527163084E-3,1.756237634E-2
2.891675932E0,-4.276056774E-3,-9.162978968E-4,1.878410578E-2
2.893911650E0,-4.276056774E-3,-2.138028387E-3,1.634064503E-2
2.896147795E0,-1.985311974E-3,-9.468411095E-3,1.634064503E-2
2.898384673E0,1.679879380E-3,-9.468411095E-3,1.634064503E-2
2.900621672E0,4.581489484E-4,-1.069014147E-2,1.756237634E-2
2.902857024E0,1.679879380E-3,-1.313360315E-2,1.389718428E-2
2.905093047E0,3.970623948E-3,-1.802052557E-2,1.634064503E-2
2.907329131E0,7.635815535E-3,-1.939497143E-2,1.756237634E-2
2.909565703E0,9.010262787E-3,-1.939497143E-2,1.511891466E-2
2.911802092E0,1.130100712E-2,-2.306016348E-2,1.634064503E-2
2.914038420E0,1.130100712E-2,-2.550362423E-2,1.634064503E-2
2.916274993E0,1.496619824E-2,-2.183843218E-2,1.878410578E-2
2.918512053E0,1.756237634E-2,-2.076941915E-2,1.878410578E-2
2.920745147E0,2.000583708E-2,-2.199114859E-2,1.878410578E-2
2.922974639E0,2.244929783E-2,-2.076941915E-2,1.893682219E-2
2.925219512E0,2.244929783E-2,-1.832595654E-2,1.771509275E-2
2.927456145E0,2.504547499E-2,-1.359175146E-2,1.893682219E-2
2.929694914E0,2.626720630E-2,-1.237002108E-2,1.771509275E-2
2.931928801E0,2.641992271E-2,-8.704829961E-3,1.771509275E-2
2.934165434E0,2.519819140E-2,-5.039638374E-3,1.404990070E-2
2.936402617E0,2.657263726E-2,-2.748893574E-3,1.282817032E-2
2.938638091E0,2.535090782E-2,-2.748893574E-3,1.038470957E-2
2.940875334E0,2.672535367E-2,2.138028387E-3,6.719517522E-3
2.943110076E0,2.550362423E-2,5.803219974E-3,1.832595794E-3
2.945346526E0,1.954768784E-2,9.621127509E-3,-1.832595794E-3
2.947582793E0,1.832595654E-2,8.399397135E-3,-7.941247895E-3
2.949818449E0,1.710422710E-2,1.084285788E-2,-9.162978269E-3
2.952048552E0,8.552113548E-3,1.221730467E-2,-1.420261711E-2
2.954278655E0,6.108652335E-3,8.552113548E-3,-1.908953860E-2
2.956528350E0,-1.374446787E-3,6.414085161E-3,-2.657263726E-2
2.958765471E0,-5.039638374E-3,6.414085161E-3,-3.023782931E-2
2.961004302E0,-9.926560335E-3,2.901609987E-3,-3.390302137E-2
2.963236785E0,-1.740965992E-2,-6.108652451E-4,-3.772092983E-2
2.965473235E0,-2.107485011E-2,-2.901609987E-3,-4.016438872E-2
2.967709807E0,-2.489275858E-2,-7.788531948E-3,-4.260785133E-2
2.969946684E0,-2.855795063E-2,-7.635815535E-3,-4.398229718E-2
2.972180510E0,-2.977968007E-2,-8.857546374E-3,-4.520402849E-2
2.974406829E0,-3.481931984E-2,-9.926560335E-3,-4.520402849E-2
2.976655059E0,-3.726277873E-2,-1.359175146E-2,-4.642575979E-2
2.978891143E0,-3.726277873E-2,-9.926560335E-3,-4.520402849E-2
2.981130522E0,-3.848451003E-2,-1.114829071E-2,-4.398229718E-2
2.983364043E0,-3.848451003E-2,-7.483099122E-3,-4.031710699E-2
2.985600127E0,-3.481931984E-2,-8.704829961E-3,-3.665191308E-2
2.987836760E0,-3.100141138E-2,-3.970623948E-3,-3.420845419E-2
2.990073821E0,-2.855795063E-2,-4.581489484E-4,-2.916881628E-2
2.992306425E0,-2.596177347E-2,4.428773187E-3,-2.428189293E-2
2.994533599E0,-1.863138936E-2,6.719517522E-3,-2.046398632E-2
2.996781829E0,-1.481348183E-2,1.267545391E-2,-1.924225502E-2
2.999018096E0,-1.359175146E-2,1.511891466E-2,-1.435533352E-2
3.001257414E0,-9.773843922E-3,1.863138936E-2,-1.069014147E-2
3.003490508E0,-5.955935922E-3,2.336559631E-2,-8.093964309E-3
3.005727385E0,-1.069014193E-3,2.458732575E-2,-4.428773187E-3
3.007964507E0,1.374446787E-3,2.809980139E-2,-7.635815418E-4
3.010200346E0,8.857546374E-3,3.039054573E-2,1.832595794E-3
3.012437102E0,7.635815535E-3,3.039054573E-2,4.276056774E-3
3.014672087E0,6.261368748E-3,2.809980139E-2,7.941247895E-3
3.016908171E0,6.261368748E-3,3.039054573E-2,9.162978269E-3
3.019144561E0,7.483099122E-3,2.672535367E-2,1.160643995E-2
3.021381194E0,2.443460980E-3,2.321287990E-2,1.404990070E-2
3.023618071E0,3.665191587E-3,2.076941915E-2,1.404990070E-2
3.025854827E0,1.221730490E-3,2.214386500E-2,1.771509275E-2
3.028090178E0,-1.527163113E-4,1.603521220E-2,2.000583708E-2
3.030326445E0,-2.748893574E-3,1.114829071E-2,2.000583708E-2
3.032562590E0,-7.788531948E-3,8.857546374E-3,2.122756653E-2
3.034796416E0,-5.345070735E-3,8.857546374E-3,1.878410578E-2
3.037024504E0,-5.497787148E-3,1.527163084E-3,2.000583708E-2
3.039271819E0,-6.872233935E-3,-4.428773187E-3,2.229658142E-2
3.041508391E0,-8.093964309E-3,-6.872233935E-3,2.107485011E-2
3.043748198E0,-9.315694682E-3,-6.872233935E-3,1.863138936E-2
3.045980742E0,-9.315694682E-3,-8.093964309E-3,1.863138936E-2
3.048216826E0,-7.024950348E-3,-1.420261711E-2,1.863138936E-2
3.050452909E0,-7.024950348E-3,-1.420261711E-2,1.985312067E-2
3.052689482E0,-9.468411095E-3,-1.420261711E-2,1.863138936E-2
3.054921721E0,-6.872233935E-3,-9.315694682E-3,1.740965992E-2
3.057145598E0,-3.207042580E-3,-1.420261711E-2,1.618792862E-2
3.059398772E0,-4.428773187E-3,-1.175915636E-2,1.863138936E-2
3.061635832E0,-3.207042580E-3,-1.175915636E-2,1.618792862E-2
3.063872343E0,-1.985311974E-3,-1.191187184E-2,1.618792862E-2
3.066095549E0,-3.207042580E-3,-1.175915636E-2,1.618792862E-2
3.068343535E0,-3.207042580E-3,-8.246680722E-3,1.496619824E-2
3.070579924E0,-1.985311974E-3,-1.069014147E-2,1.618792862E-2
3.072816558E0,-7.635815418E-4,-8.246680722E-3,1.634064503E-2
3.075041106E0,-1.985311974E-3,-8.246680722E-3,1.756237634E-2
3.077289458E0,-4.428773187E-3,-7.024950348E-3,1.740965992E-2
3.079526396E0,-4.276056774E-3,-5.803219974E-3,1.740965992E-2
3.081761748E0,-4.276056774E-3,-4.581489135E-3,1.756237634E-2
3.083987029E0,-5.497787148E-3,-3.359758761E-3,1.878410578E-2
3.086233672E0,-7.941247895E-3,-1.985311974E-3,2.229658142E-2
3.088470549E0,-7.941247895E-3,-7.635815418E-4,2.474004216E-2
3.090709562E0,-7.941247895E-3,2.901609987E-3,2.367102914E-2
3.092943267E0,-9.010262787E-3,6.566801574E-3,2.367102914E-2
3.095179778E0,-1.160643995E-2,6.566801574E-3,2.733621933E-2
3.097416838E0,-1.160643995E-2,6.566801574E-3,2.733621933E-2
3.099652129E0,-1.160643995E-2,6.566801574E-3,2.855795063E-2
3.101888213E0,-1.282817032E-2,7.788531948E-3,2.718350291E-2
3.104124297E0,-1.511891466E-2,1.023199316E-2,2.962696366E-2
3.106360869E0,-1.511891466E-2,1.267545391E-2,3.100141138E-2
3.108597258E0,-1.389718428E-2,1.267545391E-2,2.855795063E-2
3.110833647E0,-1.511891466E-2,1.389718428E-2,3.100141138E-2
3.113070403E0,-1.267545391E-2,1.145372353E-2,2.855795063E-2
3.115307219E0,-1.267545391E-2,1.267545391E-2,2.733621933E-2
3.117542571E0,-1.634064503E-2,1.267545391E-2,2.840523422E-2
3.119775847E0,-1.893682219E-2,1.038470957E-2,2.840523422E-2
3.122000822E0,-1.634064503E-2,7.788531948E-3,2.229658142E-2
3.124242766E0,-1.649336144E-2,6.566801574E-3,2.229658142E-2
3.126487822E0,-1.511891466E-2,7.788531948E-3,2.351831272E-2
3.128726958E0,-1.893682219E-2,6.719517522E-3,2.107485011E-2
3.130962981E0,-1.771509275E-2,6.108652451E-4,1.985312067E-2
3.133197783E0,-1.786780916E-2,-1.832595794E-3,1.863138936E-2
3.135432952E0,-1.786780916E-2,-1.832595794E-3,1.618792862E-2
3.137669219E0,-1.908953860E-2,-4.276056774E-3,1.374446787E-2
3.139905303E0,-1.664607786E-2,-9.162978269E-3,1.252273750E-2
3.142138945E0,-1.298088674E-2,-1.160643995E-2,1.252273750E-2
3.144366301E0,-1.435533352E-2,-1.282817032E-2,1.007927675E-2
3.146614592E0,-1.053742506E-2,-1.282817032E-2,1.007927675E-2
3.148848234E0,-1.069014147E-2,-1.527163107E-2,1.007927675E-2
3.151079497E0,-8.093964309E-3,-1.420261711E-2,1.007927675E-2
3.153323882E0,-9.315694682E-3,-1.053742506E-2,1.252273750E-2
3.155561186E0,-5.650503561E-3,-1.298088674E-2,1.130100712E-2
3.157799101E0,-3.207042580E-3,-1.053742506E-2,1.252273750E-2
3.160032317E0,-3.207042580E-3,-8.246680722E-3,1.496619824E-2
3.162265654E0,6.108652451E-4,-7.024950348E-3,1.878410578E-2
3.164490386E0,3.054326167E-3,-3.512475174E-3,2.000583708E-2
3.166729643E0,4.428773187E-3,3.817907767E-3,2.000583708E-2
3.168978789E0,5.650503561E-3,3.817907767E-3,2.244929783E-2
3.171212187E0,8.093964309E-3,6.108652335E-3,2.504547499E-2
3.173434783E0,1.313360315E-2,9.621127509E-3,2.626720630E-2
3.175686553E0,1.206458826E-2,1.328631863E-2,2.626720630E-2
3.177922942E0,1.069014147E-2,1.099557430E-2,2.871066704E-2
3.180163847E0,1.191187184E-2,9.773843922E-3,2.993239649E-2
3.182395293E0,9.468411095E-3,1.466076635E-2,2.871066704E-2
3.184629179E0,1.084285788E-2,1.588249579E-2,3.115412779E-2
3.186854216E0,9.468411095E-3,1.221730467E-2,3.115412779E-2
3.189092375E0,5.650503561E-3,6.261368748E-3,2.977968007E-2
3.191337797E0,8.093964309E-3,4.886921961E-3,3.115412779E-2
3.193568449E0,6.872233935E-3,3.817907767E-3,2.733621933E-2
3.195816314E0,7.941247895E-3,-2.290744567E-3,2.611448988E-2
3.198049651E0,9.162978269E-3,-7.177666761E-3,2.489275858E-2
3.200288847E0,1.038470957E-2,-9.621127509E-3,2.367102914E-2
3.202519926E0,6.566801574E-3,-1.206458826E-2,2.244929783E-2
3.204748137E0,1.007927675E-2,-1.939497143E-2,2.244929783E-2
3.206994963E0,1.007927675E-2,-2.183843218E-2,2.122756653E-2
3.209231291E0,1.374446787E-2,-2.306016348E-2,2.000583708E-2
3.211470488E0,1.252273750E-2,-2.672535367E-2,1.878410578E-2
3.213703887E0,1.374446787E-2,-2.794708498E-2,1.756237634E-2
3.215940215E0,1.359175146E-2,-3.039054573E-2,1.511891466E-2
3.218177214E0,1.603521220E-2,-3.161227703E-2,1.389718428E-2
3.220412932E0,1.725694351E-2,-3.161227703E-2,1.389718428E-2
3.222650237E0,1.970040426E-2,-3.649919853E-2,1.145372353E-2
3.224885344E0,1.985312067E-2,-3.283400834E-2,9.010262787E-3
3.227122710E0,1.970040426E-2,-3.772092983E-2,7.788531948E-3
3.229357940E0,2.214386500E-2,-3.787364438E-2,9.010262787E-3
3.231594329E0,2.092213556E-2,-3.649919853E-2,5.345070735E-3
3.233830413E0,2.214386500E-2,-3.665191308E-2,5.345070735E-3
3.236066924E0,2.351831272E-2,-3.420845419E-2,5.345070735E-3
3.238303557E0,2.474004216E-2,-3.543018550E-2,5.345070735E-3
3.240540618E0,2.351831272E-2,-3.543018550E-2,2.901609987E-3
3.242775908E0,2.474004216E-2,-3.420845419E-2,1.679879380E-3
3.245011992E0,2.474004216E-2,-3.543018550E-2,2.901609987E-3
3.247248075E0,2.107485011E-2,-3.176499158E-2,1.679879380E-3
3.249484648E0,2.107485011E-2,-2.932153270E-2,2.901609987E-3
3.251718108E0,1.878410578E-2,-2.321287990E-2,2.901609987E-3
3.253945647E0,2.000583708E-2,-2.687807009E-2,4.581489484E-4
3.256193938E0,1.740965992E-2,-2.794708498E-2,5.345070735E-3
3.258431060E0,1.389718428E-2,-2.428189293E-2,4.123340361E-3
3.260669523E0,1.267545391E-2,-2.183843218E-2,2.901609987E-3
3.262902617E0,9.010262787E-3,-1.939497143E-2,5.345070735E-3
3.265138517E0,6.719517522E-3,-1.450804994E-2,4.123340361E-3
3.267375273E0,5.497787148E-3,-1.313360315E-2,5.345070735E-3
3.269611602E0,4.276056774E-3,-1.069014147E-2,4.123340361E-3
3.271847747E0,6.108652451E-4,-4.581489135E-3,9.010262787E-3
3.274084380E0,-2.901609987E-3,1.527163084E-3,6.566801574E-3
3.276321868E0,-2.901609987E-3,3.970623948E-3,7.788531948E-3
3.278556975E0,-1.527163084E-3,9.926560335E-3,9.010262787E-3
3.280788847E0,-3.970623948E-3,1.130100712E-2,7.788531948E-3
3.283009184E0,-6.261368748E-3,1.496619824E-2,7.788531948E-3
3.285253691E0,-5.039638374E-3,1.740965992E-2,7.788531948E-3
3.287502043E0,-5.039638374E-3,1.847867295E-2,6.566801574E-3
3.289742644E0,-5.039638374E-3,1.847867295E-2,7.788531948E-3
3.291978179E0,-2.443460980E-3,1.970040426E-2,6.566801574E-3
3.294212065E0,2.443460980E-3,2.076941915E-2,6.566801574E-3
3.296447844E0,-0.000000000E0,1.970040426E-2,5.345070735E-3
3.298684600E0,1.221730490E-3,2.214386500E-2,5.345070735E-3
3.300919768E0,4.886921961E-3,2.076941915E-2,6.108652451E-4
3.303156218E0,6.108652335E-3,1.832595654E-2,6.108652451E-4
3.305392118E0,4.734205548E-3,1.466076635E-2,4.581489484E-4
3.307628752E0,3.512475174E-3,1.481348183E-2,-7.635815418E-4
3.309865569E0,7.330383174E-3,1.466076635E-2,-3.207042580E-3
3.312099699E0,1.221730467E-2,1.328631863E-2,-4.276056774E-3
3.314326079E0,9.621127509E-3,9.773843922E-3,-5.650503561E-3
3.316574248E0,8.399397135E-3,7.330383174E-3,-5.650503561E-3
3.318807097E0,9.621127509E-3,3.665191587E-3,-8.093964309E-3
3.321037687E0,1.069014147E-2,1.221730490E-3,-9.315694682E-3
3.323283049E0,1.191187184E-2,-3.665191587E-3,-9.315694682E-3
3.325519561E0,1.191187184E-2,-4.886921961E-3,-1.053742506E-2
3.327758696E0,1.420261711E-2,-8.552113548E-3,-1.053742506E-2
3.329993010E0,1.175915636E-2,-9.621127509E-3,-1.298088674E-2
3.332225615E0,1.420261711E-2,-1.466076635E-2,-1.298088674E-2
3.334454009E0,1.420261711E-2,-1.099557430E-2,-1.298088674E-2
3.336700713E0,1.420261711E-2,-9.773843922E-3,-1.298088674E-2
3.338937102E0,1.053742506E-2,-1.206458826E-2,-1.420261711E-2
3.341176298E0,1.420261711E-2,-1.466076635E-2,-1.298088674E-2
3.343409758E0,1.282817032E-2,-1.695151068E-2,-1.420261711E-2
3.345646575E0,7.941247895E-3,-1.572977938E-2,-1.664607786E-2
3.347882048E0,9.162978269E-3,-1.695151068E-2,-1.664607786E-2
3.350113555E0,1.053742506E-2,-1.328631863E-2,-1.664607786E-2
3.352354766E0,4.276056774E-3,-1.679879427E-2,-1.679879427E-2
3.354591094E0,1.832595794E-3,-1.557706390E-2,-1.802052557E-2
3.356828764E0,6.108652451E-4,-1.802052557E-2,-1.557706390E-2
3.359064055E0,6.108652451E-4,-1.679879427E-2,-1.679879427E-2
3.361300139E0,-4.428773187E-3,-1.908953860E-2,-1.557706390E-2
3.363537077E0,-5.650503561E-3,-1.908953860E-2,-1.802052557E-2
3.365774199E0,-3.207042580E-3,-1.908953860E-2,-1.802052557E-2
3.368006499E0,-1.175915636E-2,-2.015855350E-2,-1.817324013E-2
3.370231963E0,-1.175915636E-2,-2.138028294E-2,-1.572977938E-2
3.372466765E0,-1.298088674E-2,-2.015855350E-2,-1.695151068E-2
3.374706450E0,-1.053742506E-2,-2.260201424E-2,-1.572977938E-2
3.376957304E0,-1.053742506E-2,-1.771509275E-2,-1.191187184E-2
3.379193754E0,-1.053742506E-2,-1.527163107E-2,-1.069014147E-2
3.381430510E0,-1.160643995E-2,-1.038470957E-2,-8.246680722E-3
3.383664336E0,-7.941247895E-3,-8.093964309E-3,-4.581489135E-3
3.385895415E0,-6.719517522E-3,-5.650503561E-3,-9.162978968E-4
3.388115630E0,-7.941247895E-3,-3.207042580E-3,5.192354787E-3
3.390359954E0,-4.123340361E-3,3.054326226E-4,7.788531948E-3
3.392608733E0,-5.345070735E-3,1.527163084E-3,9.010262787E-3
3.394849333E0,-2.748893574E-3,7.635815535E-3,1.267545391E-2
3.397084196E0,2.138028387E-3,9.926560335E-3,1.634064503E-2
3.399317961E0,3.359758761E-3,6.261368748E-3,1.756237634E-2
3.401555022E0,7.024950348E-3,8.552113548E-3,2.138028294E-2
3.403790435E0,5.650503561E-3,3.817907767E-3,2.367102914E-2
3.406026580E0,8.093964309E-3,3.665191587E-3,2.748893574E-2
3.408262236E0,1.298088674E-2,1.221730490E-3,3.359758854E-2
3.410499053E0,1.404990070E-2,-2.443460980E-3,3.604105115E-2
3.412735381E0,1.649336144E-2,-2.443460980E-3,3.481931984E-2
3.414968840E0,1.649336144E-2,-3.665191587E-3,3.726277873E-2
3.417196379E0,2.015855350E-2,-6.261368748E-3,4.092797264E-2
3.419445464E0,2.015855350E-2,-3.817907767E-3,4.092797264E-2
3.421680938E0,1.893682219E-2,-7.330383174E-3,3.970624134E-2
3.423919829E0,2.122756653E-2,-9.926560335E-3,3.848451003E-2
3.426153106E0,2.244929783E-2,-9.926560335E-3,3.848451003E-2
3.428389434E0,2.489275858E-2,-1.359175146E-2,3.970624134E-2
3.430626067E0,2.244929783E-2,-1.481348183E-2,4.092797264E-2
3.432862151E0,2.244929783E-2,-1.359175146E-2,3.970624134E-2
3.435098967E0,2.000583708E-2,-1.466076635E-2,3.726277873E-2
3.437335784E0,2.489275858E-2,-1.603521220E-2,3.726277873E-2
3.439571623E0,2.351831272E-2,-1.970040426E-2,3.726277873E-2
3.441808379E0,2.474004216E-2,-2.092213556E-2,3.481931984E-2
3.444043547E0,1.985312067E-2,-2.199114859E-2,3.359758854E-2
3.446280059E0,2.107485011E-2,-2.321287990E-2,3.115412779E-2
3.448516143E0,1.863138936E-2,-1.954768784E-2,3.115412779E-2
3.450749480E0,1.496619824E-2,-1.832595654E-2,3.100141138E-2
3.452975493E0,1.007927675E-2,-1.939497143E-2,3.100141138E-2
3.455216948E0,8.857546374E-3,-1.939497143E-2,2.733621933E-2
3.457450347E0,5.039638374E-3,-2.290744707E-2,2.733621933E-2
3.459701139E0,6.261368748E-3,-2.412917651E-2,2.611448988E-2
3.461935758E0,6.261368748E-3,-2.412917651E-2,2.244929783E-2
3.464173307E0,7.635815535E-3,-2.290744707E-2,2.122756653E-2
3.466406768E0,2.748893574E-3,-2.046398632E-2,2.000583708E-2
3.468643096E0,1.527163084E-3,-1.802052557E-2,1.618792862E-2
3.470879790E0,1.527163084E-3,-1.679879427E-2,1.634064503E-2
3.473117034E0,-3.207042580E-3,-1.053742506E-2,1.252273750E-2
3.475352141E0,-4.428773187E-3,-1.053742506E-2,1.252273750E-2
3.477588530E0,-5.650503561E-3,-8.093964309E-3,1.130100712E-2
3.479822233E0,-5.497787148E-3,-2.138028387E-3,1.389718428E-2
3.482047271E0,-9.010262787E-3,4.123340361E-3,1.374446787E-2
3.484282073E0,-8.857546374E-3,1.130100712E-2,1.511891466E-2
3.486533660E0,-1.130100712E-2,1.496619824E-2,1.756237634E-2
3.488772612E0,-1.130100712E-2,1.740965992E-2,1.634064503E-2
3.491011199E0,-1.114829071E-2,2.107485011E-2,1.756237634E-2
3.493242461E0,-9.926560335E-3,2.351831272E-2,1.756237634E-2
3.495478911E0,-1.237002108E-2,2.351831272E-2,1.634064503E-2
3.497715116E0,-1.237002108E-2,2.474004216E-2,1.634064503E-2
3.499951567E0,-1.099557430E-2,3.207042441E-2,1.756237634E-2
3.502185149E0,-1.466076635E-2,3.207042441E-2,1.634064503E-2
3.504411284E0,-9.773843922E-3,3.191770986E-2,1.634064503E-2
3.506656340E0,-7.330383174E-3,3.191770986E-2,1.511891466E-2
3.508897734E0,-9.621127509E-3,3.436116874E-2,1.878410578E-2
3.511136321E0,-9.621127509E-3,3.558290005E-2,1.634064503E-2
3.513371611E0,-4.734205548E-3,3.680463135E-2,1.649336144E-2
3.515605803E0,-2.290744567E-3,3.298672289E-2,1.893682219E-2
3.517839201E0,-3.512475174E-3,3.191770986E-2,1.893682219E-2
3.520066435E0,-0.000000000E0,2.932153270E-2,1.649336144E-2
3.522314421E0,1.221730490E-3,2.809980139E-2,1.893682219E-2
3.524551116E0,3.665191587E-3,2.687807009E-2,1.649336144E-2
3.526791288E0,5.039638374E-3,2.932153270E-2,1.771509275E-2
3.529023467E0,5.039638374E-3,2.809980139E-2,1.527163107E-2
3.531256621E0,7.330383174E-3,2.565634064E-2,1.649336144E-2
3.533483916E0,9.926560335E-3,2.550362423E-2,1.404990070E-2
3.535732512E0,1.221730467E-2,2.183843218E-2,1.282817032E-2
3.537968901E0,1.099557430E-2,2.061670274E-2,1.282817032E-2
3.540208159E0,1.343903504E-2,2.183843218E-2,1.038470957E-2
3.542441680E0,1.466076635E-2,1.939497143E-2,1.038470957E-2
3.544678496E0,1.710422710E-2,1.817324013E-2,9.162978269E-3
3.546911834E0,1.725694351E-2,2.061670274E-2,7.941247895E-3
3.549142119E0,1.710422710E-2,1.939497143E-2,7.941247895E-3
3.551383391E0,1.466076635E-2,1.817324013E-2,9.162978269E-3
3.553611235E0,1.466076635E-2,1.450804994E-2,7.941247895E-3
3.555861479E0,1.588249579E-2,1.572977938E-2,1.038470957E-2
3.558095610E0,1.343903504E-2,1.695151068E-2,1.160643995E-2
3.560335296E0,1.084285788E-2,1.221730467E-2,1.038470957E-2
3.562569060E0,7.024950348E-3,8.552113548E-3,1.023199316E-2
3.564804290E0,5.803219974E-3,8.704829961E-3,9.010262787E-3
3.567040740E0,5.803219974E-3,5.039638374E-3,9.010262787E-3
3.569276702E0,4.581489135E-3,2.596177394E-3,7.788531948E-3
3.571513518E0,-2.901609987E-3,2.748893574E-3,7.788531948E-3
3.573749541E0,-4.123340361E-3,1.527163084E-3,7.788531948E-3
3.575985991E0,-7.788531948E-3,1.679879380E-3,6.414085161E-3
3.578222746E0,-1.023199316E-2,2.901609987E-3,7.635815535E-3
3.580459868E0,-1.267545391E-2,1.679879380E-3,5.192354787E-3
3.582695403E0,-1.389718428E-2,2.901609987E-3,6.414085161E-3
3.584928435E0,-1.267545391E-2,5.345070735E-3,6.414085161E-3
3.587152312E0,-1.634064503E-2,3.054326167E-3,6.414085161E-3
3.589403594E0,-1.511891466E-2,1.832595794E-3,5.192354787E-3
3.591639983E0,-1.511891466E-2,2.901609987E-3,5.192354787E-3
3.593880278E0,-1.389718428E-2,2.901609987E-3,5.192354787E-3
3.596113188E0,-1.389718428E-2,1.679879380E-3,5.192354787E-3
3.598350188E0,-1.389718428E-2,1.679879380E-3,6.414085161E-3
3.600585479E0,-1.389718428E-2,5.345070735E-3,7.635815535E-3
3.602821502E0,-1.023199316E-2,4.581489484E-4,7.635815535E-3
3.605057402E0,-7.788531948E-3,5.192354787E-3,7.788531948E-3
3.607294341E0,-1.038470957E-2,-7.635815418E-4,1.130100712E-2
3.609531096E0,-6.719517522E-3,-1.985311974E-3,1.252273750E-2
3.611767058E0,-5.497787148E-3,3.054326226E-4,1.389718428E-2
3.613999418E0,-6.719517522E-3,-4.428773187E-3,1.618792862E-2
3.616223906E0,-5.497787148E-3,-2.138028387E-3,1.756237634E-2
3.618479033E0,-1.832595794E-3,-4.581489135E-3,1.878410578E-2
3.620712004E0,1.679879380E-3,-9.468411095E-3,2.000583708E-2
3.622952910E0,-7.635815418E-4,-1.069014147E-2,2.244929783E-2
3.625184050E0,-2.138028387E-3,-1.313360315E-2,2.367102914E-2
3.627420989E0,1.679879380E-3,-1.313360315E-2,2.611448988E-2
3.629657256E0,2.901609987E-3,-1.191187184E-2,2.611448988E-2
3.631894133E0,4.123340361E-3,-9.468411095E-3,2.855795063E-2
3.634131255E0,1.282817032E-2,-9.773843922E-3,2.611448988E-2
3.636366606E0,1.404990070E-2,-7.330383174E-3,2.993239649E-2
3.638602874E0,1.282817032E-2,-6.108652335E-3,3.115412779E-2
3.640838897E0,1.649336144E-2,-2.443460980E-3,2.993239649E-2
3.643075225E0,1.786780916E-2,1.069014193E-3,2.871066704E-2
3.645311492E0,1.802052557E-2,5.955935922E-3,2.626720630E-2
3.647547698E0,2.046398632E-2,8.399397135E-3,2.260201424E-2
3.649784819E0,2.046398632E-2,7.177666761E-3,2.015855350E-2
3.652018218E0,1.939497143E-2,8.399397135E-3,1.771509275E-2
3.654239836E0,2.076941915E-2,1.313360315E-2,1.282817032E-2
3.656482207E0,1.572977938E-2,1.084285788E-2,9.162978269E-3
3.658729215E0,1.450804994E-2,1.084285788E-2,1.832595794E-3
3.660966337E0,1.206458826E-2,9.773843922E-3,-4.276056774E-3
3.663190276E0,3.512475174E-3,8.704829961E-3,-8.093964309E-3
3.665426604E0,-1.527163113E-4,5.039638374E-3,-1.298088674E-2
3.667675139E0,-6.414085161E-3,1.527163084E-3,-1.802052557E-2
3.669914885E0,-1.252273750E-2,-7.635815418E-4,-2.290744707E-2
3.672147551E0,-1.160643995E-2,-1.038470957E-2,-2.535090782E-2
3.674371916E0,-1.893682219E-2,-1.145372353E-2,-2.916881628E-2
3.676619962E0,-2.260201424E-2,-1.267545391E-2,-3.039054573E-2
3.678856291E0,-2.641992271E-2,-1.496619824E-2,-2.794708498E-2
3.681092803E0,-3.130684420E-2,-1.847867295E-2,-2.932153270E-2
3.683316924E0,-3.145955876E-2,-2.214386500E-2,-3.054326214E-2
3.685565520E0,-3.390302137E-2,-2.336559631E-2,-2.809980139E-2
3.687802520E0,-3.527746722E-2,-2.703078650E-2,-2.443460934E-2
3.690040922E0,-3.527746722E-2,-2.336559631E-2,-2.076941915E-2
3.692271269E0,-3.634648025E-2,-2.092213556E-2,-2.076941915E-2
3.694498319E0,-3.634648025E-2,-1.603521220E-2,-1.466076635E-2
3.696746611E0,-3.390302137E-2,-1.359175146E-2,-9.773843922E-3
3.698982939E0,-3.252857551E-2,-1.130100712E-2,-7.177666761E-3
3.701222259E0,-2.764165215E-2,-8.857546374E-3,1.527163113E-4
3.703455962E0,-2.397646010E-2,-5.345070735E-3,2.596177394E-3
3.705693206E0,-2.015855350E-2,6.108652451E-4,1.007927675E-2
3.707928374E0,-1.527163107E-2,2.901609987E-3,1.496619824E-2
3.710164885E0,-1.145372353E-2,6.566801574E-3,1.863138936E-2
3.712397734E0,-1.023199316E-2,7.788531948E-3,2.244929783E-2
3.714625640E0,-2.748893574E-3,1.725694351E-2,2.489275858E-2
3.716872466E0,1.069014193E-3,1.847867295E-2,2.871066704E-2
3.719104460E0,3.359758761E-3,1.710422710E-2,3.237585723E-2
3.721348966E0,7.177666761E-3,1.832595654E-2,3.481931984E-2
3.723583525E0,1.313360315E-2,1.572977938E-2,3.848451003E-2
3.725820525E0,1.313360315E-2,1.328631863E-2,4.092797264E-2
3.728056365E0,1.313360315E-2,1.328631863E-2,4.214970022E-2
3.730291350E0,1.557706390E-2,1.084285788E-2,4.214970022E-2
3.732527922E0,1.542434748E-2,4.734205548E-3,4.337143153E-2
3.734763944E0,1.298088674E-2,4.886921961E-3,4.337143153E-2
3.737000273E0,1.404990070E-2,-1.221730490E-3,4.459316283E-2
3.739236846E0,1.267545391E-2,-9.773843922E-3,4.214970022E-2
3.741473967E0,1.267545391E-2,-1.206458826E-2,3.970624134E-2
3.743709563E0,1.374446787E-2,-1.572977938E-2,3.588833287E-2
3.745944914E0,1.496619824E-2,-1.939497143E-2,3.344487399E-2
3.748174711E0,1.496619824E-2,-1.939497143E-2,2.733621933E-2
3.750401824E0,1.374446787E-2,-2.428189293E-2,2.489275858E-2
3.752654387E0,1.756237634E-2,-1.954768784E-2,2.244929783E-2
3.754891691E0,1.634064503E-2,-2.076941915E-2,2.000583708E-2
3.757131621E0,1.756237634E-2,-2.199114859E-2,1.756237634E-2
3.759364653E0,1.634064503E-2,-1.710422710E-2,1.267545391E-2
3.761599883E0,1.893682219E-2,-1.221730467E-2,1.038470957E-2
3.763835967E0,1.771509275E-2,-1.343903504E-2,6.566801574E-3
3.766072051E0,1.908953860E-2,-5.039638374E-3,4.276056774E-3
3.768308684E0,1.802052557E-2,-1.374446787E-3,-6.108652451E-4
3.770545256E0,1.695151068E-2,2.290744567E-3,-3.054326167E-3
3.772781340E0,1.206458826E-2,3.665191587E-3,-5.650503561E-3
3.775017912E0,1.069014147E-2,2.443460980E-3,-5.650503561E-3
3.777254912E0,7.177666761E-3,5.039638374E-3,-9.315694682E-3
3.779490264E0,4.886921961E-3,1.221730467E-2,-9.315694682E-3
3.781726409E0,3.665191587E-3,1.710422710E-2,-1.298088674E-2
3.783961516E0,-1.221730490E-3,1.725694351E-2,-1.298088674E-2
3.786194365E0,-6.108652335E-3,1.863138936E-2,-1.542434748E-2
3.788435393E0,-8.552113548E-3,1.985312067E-2,-1.664607786E-2
3.790671721E0,-7.177666761E-3,2.229658142E-2,-1.786780916E-2
3.792909819E0,-1.328631863E-2,2.351831272E-2,-1.802052557E-2
3.795145903E0,-1.466076635E-2,2.244929783E-2,-1.802052557E-2
3.797381255E0,-2.199114859E-2,1.893682219E-2,-2.168571576E-2
3.799618193E0,-2.199114859E-2,2.015855350E-2,-2.168571576E-2
3.801852935E0,-2.580905706E-2,1.649336144E-2,-2.306016348E-2
3.804089446E0,-2.809980139E-2,2.015855350E-2,-2.428189293E-2
3.806325896E0,-2.703078650E-2,1.649336144E-2,-2.550362423E-2
3.808562102E0,-2.825251780E-2,1.786780916E-2,-2.550362423E-2
3.810798979E0,-2.580905706E-2,1.404990070E-2,-2.306016348E-2
3.813034880E0,-2.580905706E-2,1.404990070E-2,-2.550362423E-2
3.815267180E0,-2.336559631E-2,1.038470957E-2,-2.306016348E-2
3.817507415E0,-2.092213556E-2,1.282817032E-2,-2.046398632E-2
3.819743682E0,-1.970040426E-2,1.404990070E-2,-1.802052557E-2
3.821980193E0,-1.725694351E-2,1.267545391E-2,-1.679879427E-2
3.824212981E0,-1.359175146E-2,1.145372353E-2,-1.069014147E-2
3.826452727E0,-1.114829071E-2,1.145372353E-2,-9.468411095E-3
3.828689604E0,-7.635815535E-3,3.970623948E-3,-7.024950348E-3
3.830927458E0,-7.635815535E-3,5.192354787E-3,-4.581489135E-3
3.833161711E0,-6.566801574E-3,1.527163084E-3,-4.581489135E-3
3.835397979E0,-5.345070735E-3,-9.162978968E-4,3.054326226E-4
3.837634002E0,-1.679879380E-3,-2.138028387E-3,4.123340361E-3
3.839870452E0,-2.901609987E-3,-3.359758761E-3,3.970623948E-3
3.842104033E0,3.207042580E-3,-1.069014193E-3,5.345070735E-3
3.844331389E0,4.428773187E-3,-4.734205548E-3,4.123340361E-3
3.846579924E0,5.497787148E-3,-9.621127509E-3,7.788531948E-3
3.848816741E0,9.162978269E-3,-1.206458826E-2,9.010262787E-3
3.851052336E0,6.719517522E-3,-9.621127509E-3,1.145372353E-2
3.853275176E0,9.010262787E-3,-1.450804994E-2,1.389718428E-2
3.855518645E0,1.023199316E-2,-1.939497143E-2,1.511891466E-2
3.857761077E0,1.023199316E-2,-1.817324013E-2,1.756237634E-2
3.860000578E0,1.389718428E-2,-1.817324013E-2,1.756237634E-2
3.862232207E0,1.511891466E-2,-1.939497143E-2,1.878410578E-2
3.864455351E0,1.756237634E-2,-1.954768784E-2,1.756237634E-2
3.866692412E0,2.000583708E-2,-2.199114859E-2,1.756237634E-2
3.868928374E0,1.634064503E-2,-1.710422710E-2,2.000583708E-2
3.871166960E0,2.015855350E-2,-1.099557430E-2,2.015855350E-2
3.873396880E0,2.031126991E-2,-7.483099122E-3,1.893682219E-2
3.875639983E0,2.153299935E-2,-2.596177394E-3,1.771509275E-2
3.877876006E0,2.031126991E-2,-2.596177394E-3,1.771509275E-2
3.880114287E0,2.168571576E-2,-1.527163113E-4,1.649336144E-2
3.882349150E0,2.428189293E-2,7.024950348E-3,1.282817032E-2
3.884589141E0,2.061670274E-2,8.399397135E-3,1.160643995E-2
3.886833953E0,1.939497143E-2,9.621127509E-3,1.038470957E-2
3.889057463E0,2.076941915E-2,1.435533352E-2,1.282817032E-2
3.891293975E0,1.832595654E-2,1.572977938E-2,7.941247895E-3
3.893527556E0,1.725694351E-2,1.939497143E-2,3.054326167E-3
3.895769316E0,1.603521220E-2,1.939497143E-2,1.832595794E-3
3.898005400E0,1.343903504E-2,1.695151068E-2,-6.108652451E-4
3.900247466E0,9.773843922E-3,1.588249579E-2,-3.054326167E-3
3.902476775E0,4.886921961E-3,1.832595654E-2,-6.872233935E-3
3.904714751E0,3.665191587E-3,1.710422710E-2,-9.315694682E-3
3.906946135E0,-0.000000000E0,1.481348183E-2,-1.053742506E-2
3.909184966E0,-3.665191587E-3,1.481348183E-2,-1.298088674E-2
3.911422392E0,-9.926560335E-3,1.252273750E-2,-1.802052557E-2
3.913657073E0,-9.926560335E-3,9.010262787E-3,-2.168571576E-2
3.915893279E0,-1.237002108E-2,7.788531948E-3,-2.290744707E-2
3.918129119E0,-1.252273750E-2,2.901609987E-3,-2.657263726E-2
3.920367034E0,-1.496619824E-2,2.901609987E-3,-2.779436857E-2
3.922602324E0,-1.496619824E-2,1.832595794E-3,-3.145955876E-2
3.924838469E0,-1.496619824E-2,1.832595794E-3,-3.268129006E-2
3.927074553E0,-1.618792862E-2,6.108652451E-4,-3.405573592E-2
3.929311492E0,-1.237002108E-2,5.345070735E-3,-3.756821156E-2
3.931548308E0,-1.237002108E-2,5.345070735E-3,-3.512475267E-2
3.933784453E0,-9.773843922E-3,9.010262787E-3,-3.756821156E-2
3.936021330E0,-7.330383174E-3,1.007927675E-2,-3.878994286E-2
3.938258574E0,-6.108652335E-3,1.007927675E-2,-4.001167417E-2
3.940496428E0,-3.665191587E-3,1.130100712E-2,-3.878994286E-2
3.942745024E0,-1.069014193E-3,1.237002108E-2,-3.863722831E-2
3.944980559E0,1.527163113E-4,1.359175146E-2,-3.985895589E-2
3.947217559E0,1.527163113E-4,1.481348183E-2,-3.619376570E-2
3.949437956E0,3.817907767E-3,1.710422710E-2,-3.741549700E-2
3.951686125E0,2.748893574E-3,1.954768784E-2,-3.619376570E-2
3.953921721E0,2.748893574E-3,2.321287990E-2,-3.375030309E-2
3.956162870E0,6.414085161E-3,2.321287990E-2,-3.130684420E-2
3.958395049E0,6.414085161E-3,2.076941915E-2,-2.886338346E-2
3.960631194E0,3.970623948E-3,2.565634064E-2,-2.641992271E-2
3.962867400E0,7.788531948E-3,3.039054573E-2,-2.626720630E-2
3.965103850E0,6.566801574E-3,2.932153270E-2,-2.382374369E-2
3.967340422E0,7.788531948E-3,3.161227703E-2,-2.138028294E-2
3.969576506E0,7.788531948E-3,3.405573592E-2,-2.015855350E-2
3.971813384E0,1.023199316E-2,3.649919853E-2,-1.649336144E-2
3.974050383E0,1.023199316E-2,3.405573592E-2,-1.282817032E-2
3.976285796E0,1.145372353E-2,3.649919853E-2,-1.649336144E-2
3.978522002E0,1.267545391E-2,3.512475267E-2,-1.649336144E-2
3.980757842E0,1.511891466E-2,3.512475267E-2,-1.527163107E-2
3.982994353E0,1.878410578E-2,3.390302137E-2,-1.511891466E-2
3.985228728E0,2.015855350E-2,3.512475267E-2,-1.267545391E-2
3.987459990E0,2.000583708E-2,3.512475267E-2,-1.145372353E-2
3.989703459E0,2.122756653E-2,3.252857551E-2,-1.511891466E-2
3.991940825E0,2.122756653E-2,3.252857551E-2,-1.389718428E-2
3.994177886E0,2.489275858E-2,3.008511290E-2,-1.145372353E-2
3.996412444E0,2.122756653E-2,2.779436857E-2,-1.023199316E-2
3.998648284E0,1.878410578E-2,3.023782931E-2,-1.038470957E-2
4.000885100E0,1.618792862E-2,2.901609987E-2,-1.038470957E-2
4.003121489E0,1.603521220E-2,2.183843218E-2,-1.038470957E-2
4.005358000E0,1.481348183E-2,2.183843218E-2,-7.941247895E-3
4.007594023E0,1.359175146E-2,2.061670274E-2,-9.162978269E-3
4.009831145E0,1.114829071E-2,1.939497143E-2,-1.038470957E-2
4.012063811E0,1.114829071E-2,1.817324013E-2,-1.038470957E-2
4.014291594E0,9.926560335E-3,1.954768784E-2,-9.162978269E-3
4.016538909E0,1.237002108E-2,1.939497143E-2,-6.719517522E-3
4.018775481E0,4.886921961E-3,1.954768784E-2,-6.872233935E-3
4.021014860E0,4.886921961E-3,1.954768784E-2,-6.872233935E-3
4.023248076E0,6.108652335E-3,1.832595654E-2,-5.650503561E-3
4.025484465E0,2.443460980E-3,1.725694351E-2,-5.650503561E-3
4.027721709E0,-1.221730490E-3,1.847867295E-2,-5.650503561E-3
4.029957061E0,-1.221730490E-3,1.970040426E-2,-6.872233935E-3
4.032190520E0,-2.443460980E-3,1.603521220E-2,-5.650503561E-3
4.034418486E0,-2.443460980E-3,1.603521220E-2,-5.650503561E-3
4.036665862E0,-3.665191587E-3,1.603521220E-2,-6.872233935E-3
4.038902373E0,-2.596177394E-3,1.481348183E-2,-5.650503561E-3
4.041141020E0,-2.443460980E-3,1.847867295E-2,-5.650503561E-3
4.043375334E0,-7.483099122E-3,1.496619824E-2,-4.428773187E-3
4.045612090E0,-6.108652335E-3,1.740965992E-2,-4.428773187E-3
4.047847563E0,-7.330383174E-3,1.863138936E-2,-4.428773187E-3
4.050079803E0,-7.483099122E-3,1.618792862E-2,-4.428773187E-3
4.052304046E0,-3.817907767E-3,1.481348183E-2,-4.428773187E-3
4.054556426E0,-5.039638374E-3,1.374446787E-2,-4.428773187E-3
4.056792510E0,-1.130100712E-2,7.788531948E-3,-7.024950348E-3
4.059032866E0,-8.857546374E-3,7.635815535E-3,-7.024950348E-3
4.061265715E0,-8.857546374E-3,6.566801574E-3,-5.803219974E-3
4.063502776E0,-1.145372353E-2,2.901609987E-3,-5.803219974E-3
4.065737883E0,-1.023199316E-2,-7.635815418E-4,-5.803219974E-3
4.067974211E0,-9.010262787E-3,-7.635815418E-4,-4.581489135E-3
4.070210540E0,-9.010262787E-3,-1.985311974E-3,-3.359758761E-3
4.072447173E0,-7.941247895E-3,-6.872233935E-3,-3.359758761E-3
4.074683440E0,-9.162978269E-3,-9.315694682E-3,-3.359758761E-3
4.076919524E0,-6.872233935E-3,-1.175915636E-2,-9.162978968E-4
4.079153593E0,-4.428773187E-3,-1.298088674E-2,3.054326226E-4
4.081382293E0,-7.635815418E-4,-1.435533352E-2,2.748893574E-3
4.083628508E0,-3.207042580E-3,-1.542434748E-2,1.527163084E-3
4.085865752E0,4.581489484E-4,-1.435533352E-2,1.527163084E-3
4.088103606E0,3.054326167E-3,-1.191187184E-2,4.123340361E-3
4.090337554E0,1.832595794E-3,-1.191187184E-2,6.566801574E-3
4.092573577E0,4.123340361E-3,-1.435533352E-2,7.788531948E-3
4.094810149E0,3.054326167E-3,-1.069014147E-2,9.010262787E-3
4.097046660E0,5.497787148E-3,-9.621127509E-3,7.788531948E-3
4.099280486E0,3.054326167E-3,-9.468411095E-3,9.010262787E-3
4.101506865E0,6.108652451E-4,-8.246680722E-3,7.788531948E-3
4.103755156E0,4.276056774E-3,-7.177666761E-3,5.345070735E-3
4.105991301E0,5.650503561E-3,-4.734205548E-3,5.345070735E-3
4.108230865E0,5.650503561E-3,-2.290744567E-3,5.345070735E-3
4.110464141E0,3.207042580E-3,-3.512475174E-3,4.123340361E-3
4.112700286E0,5.650503561E-3,-3.512475174E-3,4.123340361E-3
4.114937041E0,4.428773187E-3,-1.069014193E-3,1.679879380E-3
4.117170927E0,1.985311974E-3,1.527163113E-4,-7.635815418E-4
4.119397551E0,4.581489135E-3,2.596177394E-3,-4.428773187E-3
4.121645598E0,4.581489135E-3,2.596177394E-3,-8.093964309E-3
4.123881926E0,-3.054326226E-4,5.039638374E-3,-9.315694682E-3
4.126121245E0,-1.527163113E-4,6.261368748E-3,-1.175915636E-2
4.128352202E0,-2.596177394E-3,6.414085161E-3,-1.298088674E-2
4.130580413E0,-1.527163113E-4,5.039638374E-3,-1.664607786E-2
4.132827788E0,-3.817907767E-3,3.970623948E-3,-2.046398632E-2
4.135064788E0,-5.039638374E-3,5.192354787E-3,-2.046398632E-2
4.137302763E0,-7.483099122E-3,6.414085161E-3,-2.290744707E-2
4.139536223E0,-7.635815535E-3,2.901609987E-3,-2.412917651E-2
4.141772489E0,-8.857546374E-3,4.123340361E-3,-2.290744707E-2
4.144008818E0,-6.261368748E-3,3.970623948E-3,-2.535090782E-2
4.146246427E0,-1.374446787E-2,4.123340361E-3,-2.412917651E-2
4.148486296E0,-1.618792862E-2,1.832595794E-3,-2.535090782E-2
4.150717803E0,-1.252273750E-2,2.901609987E-3,-2.535090782E-2
4.152954924E0,-1.130100712E-2,2.901609987E-3,-2.535090782E-2
4.155189543E0,-1.252273750E-2,5.345070735E-3,-2.412917651E-2
4.157427886E0,-1.114829071E-2,7.788531948E-3,-2.535090782E-2
4.159660063E0,-1.114829071E-2,7.788531948E-3,-2.290744707E-2
4.161887786E0,-1.114829071E-2,7.788531948E-3,-2.046398632E-2
4.164135526E0,-1.618792862E-2,7.788531948E-3,-1.802052557E-2
4.166371855E0,-1.114829071E-2,7.788531948E-3,-1.924225502E-2
4.168611357E0,-1.237002108E-2,9.010262787E-3,-1.435533352E-2
4.170845488E0,-1.237002108E-2,1.145372353E-2,-1.069014147E-2
4.173080901E0,-9.926560335E-3,9.010262787E-3,-1.191187184E-2
4.175317229E0,-8.704829961E-3,1.007927675E-2,-1.191187184E-2
4.177553313E0,-6.261368748E-3,1.130100712E-2,-8.093964309E-3
4.179789885E0,-5.192354787E-3,7.635815535E-3,-8.093964309E-3
4.182023039E0,-5.192354787E-3,8.857546374E-3,-5.650503561E-3
4.184246855E0,-5.192354787E-3,8.857546374E-3,-4.428773187E-3
4.186487090E0,-5.192354787E-3,1.007927675E-2,-7.635815418E-4
4.188735930E0,-3.970623948E-3,6.414085161E-3,-1.985311974E-3
4.190974639E0,-3.970623948E-3,7.635815535E-3,-7.635815418E-4
4.193210600E0,-1.527163084E-3,8.704829961E-3,4.581489484E-4
4.195443938E0,-2.748893574E-3,6.414085161E-3,4.123340361E-3
4.197680266E0,2.138028387E-3,5.039638374E-3,4.123340361E-3
4.199916777E0,-2.748893574E-3,1.007927675E-2,4.123340361E-3
4.202150053E0,-2.748893574E-3,6.414085161E-3,4.123340361E-3
4.204379241E0,-1.527163084E-3,6.414085161E-3,4.123340361E-3
4.206626433E0,-1.527163084E-3,7.635815535E-3,5.345070735E-3
4.208861663E0,-2.901609987E-3,2.748893574E-3,4.123340361E-3
4.211100554E0,-2.901609987E-3,2.748893574E-3,5.345070735E-3
4.213335783E0,-2.901609987E-3,3.054326226E-4,5.345070735E-3
4.215573820E0,-6.566801574E-3,3.970623948E-3,3.970623948E-3
4.217795256E0,-6.566801574E-3,3.970623948E-3,5.345070735E-3
4.220043303E0,-5.345070735E-3,2.748893574E-3,4.123340361E-3
4.222275663E0,-7.788531948E-3,4.581489484E-4,1.527163084E-3
4.224508147E0,-6.566801574E-3,2.748893574E-3,3.970623948E-3
4.226752593E0,-5.192354787E-3,6.414085161E-3,4.123340361E-3
4.228989775E0,-6.414085161E-3,5.192354787E-3,2.901609987E-3
4.231226531E0,-5.192354787E-3,7.635815535E-3,4.123340361E-3
4.233456877E0,-6.414085161E-3,8.857546374E-3,4.581489484E-4
4.235697234E0,-5.192354787E-3,7.635815535E-3,1.679879380E-3
4.237933684E0,-7.483099122E-3,1.252273750E-2,1.679879380E-3
4.240171599E0,-8.704829961E-3,1.252273750E-2,-7.635815418E-4
4.242407500E0,-6.261368748E-3,1.374446787E-2,4.581489484E-4
4.244642668E0,-8.704829961E-3,1.374446787E-2,-7.635815418E-4
4.246878936E0,-9.926560335E-3,1.496619824E-2,-4.428773187E-3
4.249115935E0,-1.237002108E-2,1.863138936E-2,-3.207042580E-3
4.251355315E0,-1.114829071E-2,1.496619824E-2,-3.207042580E-3
4.253587981E0,-1.237002108E-2,1.634064503E-2,-3.359758761E-3
4.255824309E0,-1.618792862E-2,1.267545391E-2,-4.581489135E-3
4.258059965E0,-1.374446787E-2,1.145372353E-2,-4.581489135E-3
4.260297942E0,-1.740965992E-2,7.941247895E-3,-7.024950348E-3
4.262533293E0,-1.740965992E-2,9.162978269E-3,-9.468411095E-3
4.264769561E0,-1.374446787E-2,7.788531948E-3,-8.246680722E-3
4.267005401E0,-1.374446787E-2,6.566801574E-3,-1.069014147E-2
4.269242034E0,-1.130100712E-2,7.788531948E-3,-1.069014147E-2
4.271478606E0,-1.252273750E-2,6.566801574E-3,-9.468411095E-3
4.273714995E0,-1.130100712E-2,9.010262787E-3,-1.191187184E-2
4.275951567E0,-8.857546374E-3,7.635815535E-3,-1.313360315E-2
4.278187834E0,-7.635815535E-3,3.970623948E-3,-9.468411095E-3
4.280420928E0,-8.704829961E-3,1.130100712E-2,-9.468411095E-3
4.282659941E0,-3.817907767E-3,8.857546374E-3,-6.872233935E-3
4.284896026E0,-2.596177394E-3,8.857546374E-3,-5.650503561E-3
4.287133391E0,-6.261368748E-3,1.130100712E-2,-6.872233935E-3
4.289369170E0,-3.817907767E-3,1.252273750E-2,-4.428773187E-3
4.291605071E0,-3.817907767E-3,1.130100712E-2,-3.207042580E-3
4.293841887E0,-2.596177394E-3,1.237002108E-2,-1.985311974E-3
4.296078887E0,1.069014193E-3,1.481348183E-2,-7.635815418E-4
4.298314543E0,-1.527163113E-4,1.481348183E-2,-3.207042580E-3
4.300551360E0,3.665191587E-3,1.832595654E-2,4.581489484E-4
4.302786651E0,1.221730490E-3,1.847867295E-2,-7.635815418E-4
4.305022979E0,3.817907767E-3,2.932153270E-2,-1.832595794E-3
4.307259124E0,1.527163084E-3,3.543018550E-2,-1.832595794E-3
4.309495696E0,-1.069014193E-3,3.054326214E-2,-1.985311974E-3
4.311732573E0,-4.734205548E-3,2.947424725E-2,-5.650503561E-3
4.313969634E0,-1.206458826E-2,2.962696366E-2,-4.428773187E-3
4.316201933E0,-1.832595654E-2,2.367102914E-2,-7.024950348E-3
4.318428984E0,-2.214386500E-2,2.015855350E-2,-8.246680722E-3
4.320677031E0,-2.458732575E-2,1.527163107E-2,-1.191187184E-2
4.322913665E0,-2.474004216E-2,1.282817032E-2,-1.313360315E-2
4.325153167E0,-2.718350291E-2,1.053742506E-2,-1.450804994E-2
4.327386687E0,-2.474004216E-2,8.093964309E-3,-1.695151068E-2
4.329625395E0,-2.596177347E-2,8.093964309E-3,-2.061670274E-2
4.331860137E0,-2.596177347E-2,1.053742506E-2,-1.939497143E-2
4.334095366E0,-2.840523422E-2,1.053742506E-2,-1.939497143E-2
4.336331022E0,-2.840523422E-2,6.872233935E-3,-1.817324013E-2
4.338567594E0,-2.977968007E-2,-3.054326226E-4,-1.939497143E-2
4.340803984E0,-3.481931984E-2,-5.192354787E-3,-2.199114859E-2
4.343040313E0,-3.130684420E-2,-1.618792862E-2,-2.321287990E-2
4.345273894E0,-2.901609987E-2,-2.351831272E-2,-2.443460934E-2
4.347502287E0,-2.779436857E-2,-2.474004216E-2,-2.809980139E-2
4.349750395E0,-2.916881628E-2,-2.947424725E-2,-2.932153270E-2
4.351983610E0,-2.657263726E-2,-2.840523422E-2,-3.298672289E-2
4.354215483E0,-2.412917651E-2,-2.718350291E-2,-3.176499158E-2
4.356458098E0,-2.412917651E-2,-2.596177347E-2,-3.420845419E-2
4.358694609E0,-2.290744707E-2,-2.596177347E-2,-3.176499158E-2
4.360933257E0,-2.168571576E-2,-2.351831272E-2,-2.916881628E-2
4.363167021E0,-1.908953860E-2,-2.000583708E-2,-2.916881628E-2
4.365400725E0,-1.908953860E-2,-1.878410578E-2,-2.550362423E-2
4.367626250E0,-1.786780916E-2,-1.756237634E-2,-2.183843218E-2
4.369864653E0,-1.893682219E-2,-1.267545391E-2,-1.939497143E-2
4.372110686E0,-1.527163107E-2,-1.038470957E-2,-1.939497143E-2
4.374339628E0,-1.267545391E-2,-3.207042580E-3,-1.679879427E-2
4.376588042E0,-1.389718428E-2,-4.276056774E-3,-1.557706390E-2
4.378821318E0,-1.374446787E-2,5.345070735E-3,-1.435533352E-2
4.381060698E0,-1.114829071E-2,9.010262787E-3,-1.679879427E-2
4.383291594E0,-7.635815535E-3,5.192354787E-3,-1.435533352E-2
4.385519561E0,-6.261368748E-3,1.252273750E-2,-1.664607786E-2
4.387766753E0,-7.330383174E-3,1.740965992E-2,-1.786780916E-2
4.390003203E0,-6.108652335E-3,1.496619824E-2,-1.786780916E-2
4.392239042E0,-8.704829961E-3,1.374446787E-2,-1.557706390E-2
4.394463713E0,-7.330383174E-3,1.740965992E-2,-1.420261711E-2
4.396711882E0,-9.773843922E-3,1.618792862E-2,-1.557706390E-2
4.398948088E0,-7.330383174E-3,1.618792862E-2,-1.542434748E-2
4.401187835E0,-8.552113548E-3,1.740965992E-2,-1.542434748E-2
4.403421721E0,-1.114829071E-2,1.496619824E-2,-1.435533352E-2
4.405657317E0,-1.114829071E-2,1.374446787E-2,-1.557706390E-2
4.407893401E0,-7.483099122E-3,1.007927675E-2,-1.679879427E-2
4.410129729E0,-7.483099122E-3,7.635815535E-3,-2.046398632E-2
4.412364897E0,-1.130100712E-2,2.901609987E-3,-1.802052557E-2
4.414595000E0,-8.857546374E-3,2.901609987E-3,-1.924225502E-2
4.416826689E0,-1.374446787E-2,1.679879380E-3,-1.924225502E-2
4.419075346E0,-1.145372353E-2,-1.985311974E-3,-1.679879427E-2
4.421313688E0,-1.023199316E-2,-6.872233935E-3,-1.924225502E-2
4.423550628E0,-1.160643995E-2,-9.162978269E-3,-1.924225502E-2
4.425783721E0,-1.023199316E-2,-5.650503561E-3,-1.802052557E-2
4.428019805E0,-1.038470957E-2,-1.053742506E-2,-1.557706390E-2
4.430256682E0,-1.038470957E-2,-1.160643995E-2,-1.802052557E-2
4.432493010E0,-5.650503561E-3,-1.786780916E-2,-1.557706390E-2
4.434729155E0,-6.719517522E-3,-1.542434748E-2,-1.435533352E-2
