"Time (s)","Gyroscope x (rad/s)","Gyroscope y (rad/s)","Gyroscope z (rad/s)"
2.208803100E-2,1.069014147E-2,-6.918048859E-2,-3.741549700E-2
2.431801500E-2,1.985311974E-3,-7.024950534E-2,-3.619376570E-2
2.655458800E-2,-4.276056774E-3,-7.024950534E-2,-3.268129006E-2
2.879427300E-2,-1.420261711E-2,-7.849618047E-2,-3.023782931E-2
3.102846400E-2,-2.428189293E-2,-8.429940045E-2,-2.794708498E-2
3.326393800E-2,-3.543018550E-2,-9.254608303E-2,-2.565634064E-2
3.550136500E-2,-4.428773001E-2,-9.728029370E-2,-2.214386500E-2
3.773781500E-2,-5.161811411E-2,-1.007927656E-1,-2.092213556E-2
3.997377700E-2,-6.047565863E-2,-1.055269688E-1,-1.618792862E-2
4.220949500E-2,-6.673702598E-2,-1.090394482E-1,-1.374446787E-2
4.444606700E-2,-7.162395120E-2,-1.125519201E-1,-1.374446787E-2
4.668233400E-2,-7.788532227E-2,-1.185078546E-1,-1.267545391E-2
4.891988300E-2,-8.170322329E-2,-1.171334088E-1,-1.145372353E-2
5.115547900E-2,-8.536841720E-2,-1.171334088E-1,-1.145372353E-2
5.339205100E-2,-9.025534242E-2,-1.194241568E-1,-1.282817032E-2
5.563045400E-2,-9.147707373E-2,-1.157589629E-1,-1.404990070E-2
5.786611100E-2,-9.392052889E-2,-1.145372316E-1,-1.527163107E-2
6.010042500E-2,-9.392052889E-2,-1.157589629E-1,-1.527163107E-2
6.233638600E-2,-9.010262042E-2,-1.110247597E-1,-1.511891466E-2
6.457314200E-2,-9.254608303E-2,-1.073595658E-1,-1.634064503E-2
6.681117900E-2,-8.750644326E-2,-1.012509167E-1,-1.634064503E-2
6.904634800E-2,-8.246681094E-2,-1.014036313E-1,-1.511891466E-2
7.128603300E-2,-7.742717117E-2,-9.666942805E-2,-1.496619824E-2
7.353346900E-2,-7.360926270E-2,-9.071348608E-2,-1.618792862E-2
7.577016300E-2,-6.872233748E-2,-8.949175477E-2,-1.740965992E-2
7.800661300E-2,-5.879577994E-2,-8.735372871E-2,-1.847867295E-2
8.024013400E-2,-5.253441259E-2,-8.261952549E-2,-1.603521220E-2
8.247695100E-2,-4.505131021E-2,-7.910704613E-2,-1.832595654E-2
8.471395000E-2,-3.894266114E-2,-7.681630552E-2,-1.832595654E-2
8.694930200E-2,-2.901609987E-2,-7.208210230E-2,-1.817324013E-2
8.918556900E-2,-2.397646010E-2,-6.612616032E-2,-1.817324013E-2
9.142171400E-2,-1.649336144E-2,-6.627888232E-2,-1.557706390E-2
9.365859100E-2,-1.038470957E-2,-6.276640296E-2,-1.679879427E-2
9.589510300E-2,-4.123340361E-3,-5.681046844E-2,-1.298088674E-2
9.812837900E-2,9.162978968E-4,-5.574145541E-2,-1.298088674E-2
1.003565890E-1,4.581489135E-3,-5.696318299E-2,-1.053742506E-2
1.026052470E-1,8.246680722E-3,-5.589416996E-2,-7.941247895E-3
1.048404760E-1,1.450804994E-2,-5.238169432E-2,-5.497787148E-3
1.070801000E-1,1.572977938E-2,-5.115996301E-2,-5.497787148E-3
1.093139870E-1,1.817324013E-2,-5.115996301E-2,-3.054326167E-3
1.115500710E-1,2.061670274E-2,-5.131268129E-2,-3.054326167E-3
1.137876810E-1,1.817324013E-2,-5.115996301E-2,-3.054326167E-3
1.160223000E-1,1.802052557E-2,-5.726861581E-2,-5.497787148E-3
1.182592380E-1,1.802052557E-2,-5.604688451E-2,-1.832595794E-3
1.204962990E-1,1.786780916E-2,-6.215553731E-2,-1.832595794E-3
1.227317730E-1,1.649336144E-2,-6.811147183E-2,-6.108652451E-4
1.249681620E-1,1.404990070E-2,-7.177666575E-2,-6.108652451E-4
1.272043680E-1,1.145372353E-2,-7.773260027E-2,4.581489484E-4
1.294410010E-1,7.635815535E-3,-8.261952549E-2,2.901609987E-3
1.316773900E-1,-1.221730490E-3,-8.842274547E-2,6.414085161E-3
1.339139020E-1,1.221730490E-3,-9.330966324E-2,6.414085161E-3
1.361505350E-1,-5.039638374E-3,-9.560041130E-2,7.635815535E-3
1.383877780E-1,-1.130100712E-2,-1.003346145E-1,8.857546374E-3
1.406228860E-1,-1.252273750E-2,-1.015563458E-1,1.237002108E-2
1.428594580E-1,-1.756237634E-2,-1.038470939E-1,1.237002108E-2
1.450955420E-1,-2.367102914E-2,-1.061378345E-1,1.114829071E-2
1.473315650E-1,-3.237585723E-2,-1.120937690E-1,1.221730467E-2
1.495622780E-1,-3.619376570E-2,-1.143845171E-1,1.710422710E-2
1.517931130E-1,-4.245513305E-2,-1.180497110E-1,1.572977938E-2
1.540418310E-1,-4.856378585E-2,-1.191187203E-1,1.450804994E-2
1.562797460E-1,-5.604688451E-2,-1.201877370E-1,1.572977938E-2
1.585172330E-1,-6.230825558E-2,-1.249219403E-1,1.679879427E-2
1.607505710E-1,-6.719517708E-2,-1.259909570E-1,1.435533352E-2
1.629869000E-1,-7.330382615E-2,-1.246165112E-1,1.542434748E-2
1.652235330E-1,-7.956519723E-2,-1.281289905E-1,1.420261711E-2
1.674601050E-1,-8.567385375E-2,-1.291979998E-1,1.298088674E-2
1.696963720E-1,-9.193521738E-2,-1.304197311E-1,1.038470957E-2
1.719330050E-1,-9.437867999E-2,-1.314887404E-1,1.038470957E-2
1.741702490E-1,-1.006400511E-1,-1.337794960E-1,9.162978269E-3
1.764053570E-1,-1.043052375E-1,-1.337794960E-1,9.010262787E-3
1.786412570E-1,-1.091921628E-1,-1.348485053E-1,9.010262787E-3
1.808792340E-1,-1.130100712E-1,-1.372919679E-1,6.566801574E-3
1.831148290E-1,-1.142318025E-1,-1.371392459E-1,4.123340361E-3
1.853514620E-1,-1.142318025E-1,-1.383609772E-1,1.679879380E-3
1.875846170E-1,-1.178969890E-1,-1.395827085E-1,1.527163084E-3
1.898128270E-1,-1.191187203E-1,-1.395827085E-1,1.527163084E-3
1.920613620E-1,-1.178969890E-1,-1.408044398E-1,-9.162978968E-4
1.942967140E-1,-1.153008118E-1,-1.359175146E-1,-3.207042580E-3
1.965361540E-1,-1.116356254E-1,-1.336267740E-1,-4.428773187E-3
1.987694310E-1,-1.139263660E-1,-1.287398487E-1,-5.650503561E-3
2.010062480E-1,-1.114829108E-1,-1.275181174E-1,-5.650503561E-3
2.032425150E-1,-1.088867337E-1,-1.227839142E-1,-5.650503561E-3
2.054788430E-1,-1.026253626E-1,-1.180497110E-1,-6.719517522E-3
2.077124850E-1,-1.012509167E-1,-1.156062484E-1,-7.941247895E-3
2.099410010E-1,-9.880745411E-2,-1.119410545E-1,-1.160643995E-2
2.121880710E-1,-9.239336848E-2,-1.036943719E-1,-1.267545391E-2
2.144234840E-1,-8.735372871E-2,-9.896016866E-2,-1.511891466E-2
2.166597510E-1,-8.231408894E-2,-9.407325089E-2,-2.000583708E-2
2.188973000E-1,-7.727445662E-2,-8.811730891E-2,-1.985312067E-2
2.211336890E-1,-7.238753140E-2,-8.582656831E-2,-1.985312067E-2
2.233711150E-1,-6.612616032E-2,-8.353582025E-2,-2.214386500E-2
2.256065890E-1,-6.108652428E-2,-8.246681094E-2,-2.458732575E-2
2.278440770E-1,-6.108652428E-2,-7.880161703E-2,-2.580905706E-2
2.300791850E-1,-5.482515693E-2,-7.162395120E-2,-2.443460934E-2
2.323130100E-1,-5.222897977E-2,-6.673702598E-2,-2.565634064E-2
2.345376810E-1,-4.596760869E-2,-6.444628537E-2,-2.687807009E-2
2.367770000E-1,-4.230241850E-2,-6.337726861E-2,-2.809980139E-2
2.390249860E-1,-3.726277873E-2,-5.742133409E-2,-2.672535367E-2
2.412641820E-1,-3.344487399E-2,-5.375614017E-2,-2.672535367E-2
2.435021580E-1,-2.733621933E-2,-5.390885845E-2,-2.779436857E-2
2.457396460E-1,-2.596177347E-2,-4.917465150E-2,-2.657263726E-2
2.479707860E-1,-2.214386500E-2,-4.550946131E-2,-2.901609987E-2
2.502071140E-1,-2.214386500E-2,-4.428773001E-2,-3.023782931E-2
2.524430760E-1,-2.214386500E-2,-4.062253982E-2,-3.145955876E-2
2.546797710E-1,-1.970040426E-2,-4.199698567E-2,-3.390302137E-2
2.569164040E-1,-2.321287990E-2,-3.711006418E-2,-3.634648025E-2
2.591524270E-1,-2.199114859E-2,-3.588833287E-2,-3.512475267E-2
2.613893040E-1,-2.321287990E-2,-3.344487399E-2,-3.512475267E-2
2.636264870E-1,-2.794708498E-2,-2.962696366E-2,-3.390302137E-2
2.658616550E-1,-3.054326214E-2,-3.084869497E-2,-3.512475267E-2
2.680982280E-1,-3.039054573E-2,-2.840523422E-2,-3.268129006E-2
2.703343120E-1,-3.420845419E-2,-2.947424725E-2,-3.023782931E-2
2.725711890E-1,-3.787364438E-2,-2.825251780E-2,-2.901609987E-2
2.748075170E-1,-4.520402849E-2,-2.565634064E-2,-2.550362423E-2
2.770440890E-1,-4.886921868E-2,-2.565634064E-2,-2.306016348E-2
2.792806010E-1,-5.375614017E-2,-2.306016348E-2,-2.183843218E-2
2.815186980E-1,-5.742133409E-2,-1.939497143E-2,-1.695151068E-2
2.837571630E-1,-6.230825558E-2,-1.557706390E-2,-1.572977938E-2
2.859895850E-1,-6.475171447E-2,-1.557706390E-2,-1.206458826E-2
2.882256690E-1,-6.856962293E-2,-1.557706390E-2,-1.099557430E-2
2.904612640E-1,-7.330382615E-2,-9.315694682E-3,-9.773843922E-3
2.926987530E-1,-7.834346592E-2,-9.315694682E-3,-3.665191587E-3
2.949349590E-1,-8.307767659E-2,-4.276056774E-3,-3.665191587E-3
2.971720190E-1,-8.445212245E-2,-7.941247895E-3,-3.665191587E-3
2.994090190E-1,-8.933904022E-2,-6.566801574E-3,-1.221730490E-3
3.016444310E-1,-9.544769675E-2,-4.123340361E-3,-1.374446787E-3
3.038807590E-1,-9.285151958E-2,-2.901609987E-3,-2.596177394E-3
3.061172710E-1,-9.544769675E-2,-2.901609987E-3,-1.527163113E-4
3.083536600E-1,-9.422596544E-2,-2.901609987E-3,-1.374446787E-3
3.105880350E-1,-9.422596544E-2,-2.901609987E-3,-1.527163113E-4
3.128176490E-1,-9.666942805E-2,-1.679879380E-3,-1.527163113E-4
3.150631320E-1,-9.422596544E-2,-5.345070735E-3,-1.527163113E-4
3.173003760E-1,-9.178250283E-2,-6.566801574E-3,1.069014193E-3
3.195379250E-1,-8.933904022E-2,-6.566801574E-3,1.221730490E-3
3.217723610E-1,-8.689557761E-2,-5.497787148E-3,1.221730490E-3
3.240093610E-1,-8.811730891E-2,-6.719517522E-3,1.221730490E-3
3.262449560E-1,-8.552113175E-2,-4.276056774E-3,2.443460980E-3
3.284812840E-1,-8.185594529E-2,-3.054326167E-3,-0.000000000E0
3.307173070E-1,-8.185594529E-2,-1.985311974E-3,-3.665191587E-3
3.329511940E-1,-8.185594529E-2,-7.635815418E-4,-2.443460980E-3
3.351795880E-1,-7.925976813E-2,1.679879380E-3,-3.665191587E-3
3.374270850E-1,-7.559457421E-2,4.581489484E-4,-2.443460980E-3
3.396625580E-1,-7.315111160E-2,-3.359758761E-3,-4.886921961E-3
3.418998020E-1,-7.208210230E-2,-7.024950348E-3,-4.886921961E-3
3.441360080E-1,-7.559457421E-2,3.970623948E-3,-4.734205548E-3
3.463721540E-1,-8.475755155E-2,3.207042441E-2,-5.955935922E-3
3.486054900E-1,-9.666942805E-2,5.543602258E-2,-7.177666761E-3
3.508338840E-1,-1.039998084E-1,5.436700583E-2,-4.886921961E-3
3.530801000E-1,-1.044579595E-1,3.375030309E-2,-3.665191587E-3
3.553072730E-1,-9.880745411E-2,1.053742506E-2,-3.817907767E-3
3.575580670E-1,-9.544769675E-2,-8.857546374E-3,-2.596177394E-3
3.597900610E-1,-9.330966324E-2,-2.229658142E-2,-1.374446787E-3
3.620182710E-1,-9.101892263E-2,-2.840523422E-2,-1.527163113E-4
3.642638160E-1,-8.857546002E-2,-3.329215571E-2,1.069014193E-3
3.664997770E-1,-8.613199741E-2,-3.100141138E-2,1.069014193E-3
3.687399510E-1,-8.368854225E-2,-2.977968007E-2,2.290744567E-3
3.709742040E-1,-7.880161703E-2,-3.237585723E-2,4.886921961E-3
3.732093120E-1,-7.513642311E-2,-3.726277873E-2,2.443460980E-3
3.754461890E-1,-7.040221989E-2,-4.214970022E-2,1.221730490E-3
3.776801980E-1,-6.536258012E-2,-4.230241850E-2,1.221730490E-3
3.799068820E-1,-5.925392732E-2,-3.878994286E-2,2.443460980E-3
3.821551120E-1,-5.421429127E-2,-3.527746722E-2,1.374446787E-3
3.843911360E-1,-5.161811411E-2,-2.794708498E-2,5.039638374E-3
3.866310040E-1,-4.902193695E-2,-2.321287990E-2,6.261368748E-3
3.888653180E-1,-4.291328415E-2,-1.970040426E-2,6.414085161E-3
3.911006690E-1,-3.405573592E-2,-1.252273750E-2,7.788531948E-3
3.933373020E-1,-3.023782931E-2,-6.566801574E-3,9.010262787E-3
3.955742400E-1,-2.886338346E-2,7.635815418E-4,9.010262787E-3
3.978097140E-1,-2.382374369E-2,6.719517522E-3,1.038470957E-2
4.000465310E-1,-1.893682219E-2,9.010262787E-3,1.038470957E-2
4.022825540E-1,-2.138028294E-2,1.023199316E-2,1.038470957E-2
4.045194920E-1,-2.122756653E-2,1.756237634E-2,9.162978269E-3
4.067567360E-1,-1.740965992E-2,2.107485011E-2,6.719517522E-3
4.089922710E-1,-1.359175146E-2,2.580905706E-2,3.207042580E-3
4.112284160E-1,-9.926560335E-3,2.458732575E-2,3.207042580E-3
4.134646220E-1,-1.114829071E-2,2.458732575E-2,1.985311974E-3
4.157014380E-1,-8.704829961E-3,2.336559631E-2,1.985311974E-3
4.179395360E-1,-7.483099122E-3,2.092213556E-2,7.635815418E-4
4.201739110E-1,-3.817907767E-3,2.321287990E-2,7.635815418E-4
4.224107890E-1,-1.374446787E-3,2.321287990E-2,7.635815418E-4
4.246473610E-1,-1.527163113E-4,2.199114859E-2,7.635815418E-4
4.268834450E-1,4.886921961E-3,2.428189293E-2,-3.054326226E-4
4.291197730E-1,6.108652335E-3,2.550362423E-2,-2.748893574E-3
4.313560400E-1,5.039638374E-3,2.916881628E-2,-3.970623948E-3
4.335923680E-1,6.261368748E-3,2.916881628E-2,-5.192354787E-3
4.358289410E-1,8.704829961E-3,3.023782931E-2,-6.414085161E-3
4.380652080E-1,1.007927675E-2,3.268129006E-2,-7.635815535E-3
4.403019020E-1,1.237002108E-2,3.023782931E-2,-6.414085161E-3
4.425371320E-1,8.704829961E-3,3.145955876E-2,-6.414085161E-3
4.447668680E-1,8.704829961E-3,2.901609987E-2,-6.414085161E-3
4.470125950E-1,6.261368748E-3,2.794708498E-2,-7.635815535E-3
4.492471540E-1,7.330383174E-3,2.306016348E-2,-7.635815535E-3
4.514857400E-1,3.665191587E-3,2.061670274E-2,-6.566801574E-3
4.537196880E-1,8.399397135E-3,1.572977938E-2,-3.970623948E-3
4.559566260E-1,9.621127509E-3,1.450804994E-2,-6.414085161E-3
4.581932590E-1,5.955935922E-3,1.328631863E-2,-7.788531948E-3
4.604306250E-1,3.359758761E-3,9.773843922E-3,-5.345070735E-3
4.626660990E-1,1.985311974E-3,3.665191587E-3,-6.566801574E-3
4.649024270E-1,4.428773187E-3,2.443460980E-3,-6.566801574E-3
4.671392430E-1,1.832595794E-3,-4.734205548E-3,-6.566801574E-3
4.693750830E-1,4.581489484E-4,-1.084285788E-2,-5.497787148E-3
4.716116550E-1,1.679879380E-3,-1.328631863E-2,-1.160643995E-2
4.738475560E-1,-1.985311974E-3,-1.313360315E-2,-1.038470957E-2
4.760845560E-1,-1.985311974E-3,-1.557706390E-2,-1.160643995E-2
4.783215550E-1,-3.359758761E-3,-1.924225502E-2,-1.038470957E-2
4.805535500E-1,-3.359758761E-3,-1.924225502E-2,-1.160643995E-2
4.827796850E-1,-7.635815418E-4,-1.802052557E-2,-1.404990070E-2
4.850298680E-1,-1.985311974E-3,-1.557706390E-2,-1.404990070E-2
4.872662570E-1,3.054326167E-3,-1.206458826E-2,-1.404990070E-2
4.895062480E-1,6.108652451E-4,-1.206458826E-2,-1.771509275E-2
4.917390360E-1,6.108652451E-4,-8.399397135E-3,-1.649336144E-2
4.939757910E-1,7.635815418E-4,-4.734205548E-3,-1.893682219E-2
4.962132180E-1,7.635815418E-4,1.527163113E-4,-2.000583708E-2
4.984483250E-1,9.162978968E-4,2.596177394E-3,-1.878410578E-2
5.006847140E-1,9.162978968E-4,7.330383174E-3,-2.000583708E-2
5.029209820E-1,-1.527163084E-3,7.483099122E-3,-1.756237634E-2
5.051577980E-1,-1.374446787E-3,1.588249579E-2,-1.756237634E-2
5.073939430E-1,-2.443460980E-3,1.954768784E-2,-1.756237634E-2
5.096274020E-1,-1.069014193E-3,2.565634064E-2,-1.634064503E-2
5.118518890E-1,-3.512475174E-3,3.176499158E-2,-1.756237634E-2
5.140896820E-1,-8.246680722E-3,3.787364438E-2,-1.756237634E-2
5.163277810E-1,-4.581489135E-3,4.153883830E-2,-1.511891466E-2
5.185793070E-1,-9.315694682E-3,4.520402849E-2,-1.389718428E-2
5.208150240E-1,-1.053742506E-2,4.642575979E-2,-1.389718428E-2
5.230519010E-1,-1.420261711E-2,5.131268129E-2,-1.389718428E-2
5.252851170E-1,-1.802052557E-2,4.780020565E-2,-1.267545391E-2
5.275213230E-1,-2.031126991E-2,5.024366826E-2,-1.145372353E-2
5.297581400E-1,-2.397646010E-2,5.161811411E-2,-1.023199316E-2
5.319954440E-1,-2.657263726E-2,5.039638281E-2,-9.162978269E-3
5.342309180E-1,-3.023782931E-2,4.688390717E-2,-7.941247895E-3
5.364676730E-1,-3.527746722E-2,4.444044828E-2,-1.038470957E-2
5.387044290E-1,-3.665191308E-2,3.970624134E-2,-5.497787148E-3
5.409400860E-1,-3.924809024E-2,3.481931984E-2,-3.207042580E-3
5.431765970E-1,-4.169155285E-2,3.375030309E-2,-7.635815418E-4
5.454126810E-1,-3.940080851E-2,2.519819140E-2,1.679879380E-3
5.476466280E-1,-4.444044828E-2,2.168571576E-2,1.679879380E-3
5.498750830E-1,-4.581489414E-2,1.679879427E-2,4.123340361E-3
5.521221530E-1,-4.963280261E-2,9.621127509E-3,5.192354787E-3
5.543584820E-1,-4.734205827E-2,2.290744567E-3,1.252273750E-2
5.565974340E-1,-4.871650413E-2,-6.261368748E-3,1.496619824E-2
5.588311380E-1,-5.009094998E-2,-1.221730467E-2,1.496619824E-2
5.610677710E-1,-4.780020565E-2,-1.588249579E-2,1.496619824E-2
5.633042820E-1,-4.535674304E-2,-1.954768784E-2,1.740965992E-2
5.655406710E-1,-4.184427112E-2,-2.825251780E-2,1.740965992E-2
5.677780980E-1,-4.077525437E-2,-3.191770986E-2,1.863138936E-2
5.700139990E-1,-3.848451003E-2,-3.924809024E-2,2.107485011E-2
5.722499000E-1,-3.481931984E-2,-4.169155285E-2,2.351831272E-2
5.744859230E-1,-2.871066704E-2,-4.780020565E-2,2.474004216E-2
5.767223120E-1,-2.504547499E-2,-4.306599870E-2,2.474004216E-2
5.789588840E-1,-2.015855350E-2,-4.688390717E-2,2.611448988E-2
5.811957010E-1,-2.015855350E-2,-4.917465150E-2,2.733621933E-2
5.834322730E-1,-1.527163107E-2,-4.810563847E-2,2.489275858E-2
5.856693340E-1,-9.010262787E-3,-4.703662544E-2,2.733621933E-2
5.879045630E-1,-4.123340361E-3,-4.474587739E-2,2.626720630E-2
5.901409520E-1,3.359758761E-3,-4.123340547E-2,2.626720630E-2
5.923773420E-1,4.734205548E-3,-3.756821156E-2,2.382374369E-2
5.946140970E-1,8.399397135E-3,-3.772092983E-2,2.382374369E-2
5.968502420E-1,1.206458826E-2,-3.527746722E-2,2.519819140E-2
5.990868140E-1,1.832595654E-2,-3.054326214E-2,2.153299935E-2
6.013235690E-1,2.092213556E-2,-2.458732575E-2,2.153299935E-2
6.035606300E-1,2.229658142E-2,-2.214386500E-2,2.290744707E-2
6.057956760E-1,2.855795063E-2,-1.740965992E-2,2.046398632E-2
6.080294410E-1,2.993239649E-2,-1.145372353E-2,1.924225502E-2
6.102581400E-1,3.359758854E-2,-1.023199316E-2,1.817324013E-2
6.125052710E-1,3.497203439E-2,-6.566801574E-3,1.572977938E-2
6.147386080E-1,3.252857551E-2,-1.679879380E-3,1.328631863E-2
6.169685270E-1,3.512475267E-2,-6.108652451E-4,1.084285788E-2
6.192147440E-1,3.634648025E-2,3.054326167E-3,9.621127509E-3
6.214520480E-1,3.512475267E-2,3.054326167E-3,9.621127509E-3
6.236903300E-1,3.527746722E-2,6.719517522E-3,4.734205548E-3
6.259233620E-1,3.527746722E-2,9.162978269E-3,5.955935922E-3
6.281594460E-1,3.543018550E-2,1.160643995E-2,4.734205548E-3
6.303962620E-1,3.405573592E-2,1.160643995E-2,7.177666761E-3
6.326326520E-1,3.420845419E-2,1.282817032E-2,5.955935922E-3
6.348690410E-1,3.298672289E-2,1.771509275E-2,4.734205548E-3
6.371058570E-1,3.176499158E-2,1.649336144E-2,5.955935922E-3
6.393431620E-1,3.436116874E-2,2.015855350E-2,4.734205548E-3
6.415781470E-1,3.069597855E-2,2.138028294E-2,3.512475174E-3
6.438098980E-1,3.313944116E-2,2.015855350E-2,5.955935922E-3
6.460371930E-1,3.176499158E-2,1.771509275E-2,8.399397135E-3
6.482876810E-1,3.176499158E-2,1.771509275E-2,7.177666761E-3
6.505244360E-1,3.420845419E-2,1.771509275E-2,7.177666761E-3
6.527639990E-1,3.543018550E-2,1.527163107E-2,5.955935922E-3
6.549969090E-1,3.543018550E-2,1.282817032E-2,4.734205548E-3
6.572342750E-1,3.543018550E-2,1.527163107E-2,5.955935922E-3
6.594698100E-1,3.405573592E-2,1.282817032E-2,9.621127509E-3
6.617062600E-1,3.543018550E-2,1.404990070E-2,8.399397135E-3
6.639425270E-1,3.298672289E-2,1.771509275E-2,1.206458826E-2
6.661789770E-1,2.932153270E-2,1.649336144E-2,1.206458826E-2
6.684151220E-1,2.932153270E-2,1.649336144E-2,1.328631863E-2
6.706516330E-1,2.687807009E-2,1.786780916E-2,1.328631863E-2
6.728852150E-1,2.321287990E-2,2.031126991E-2,1.450804994E-2
6.751134250E-1,2.306016348E-2,1.908953860E-2,1.572977938E-2
6.773609840E-1,2.061670274E-2,1.908953860E-2,1.572977938E-2
6.795978000E-1,1.817324013E-2,1.802052557E-2,1.679879427E-2
6.818375460E-1,1.679879427E-2,1.435533352E-2,1.924225502E-2
6.840699680E-1,1.313360315E-2,1.328631863E-2,1.802052557E-2
6.863066630E-1,1.679879427E-2,1.191187184E-2,2.046398632E-2
6.885426250E-1,1.069014147E-2,1.206458826E-2,2.412917651E-2
6.907799900E-1,1.053742506E-2,7.177666761E-3,2.412917651E-2
6.930169290E-1,1.053742506E-2,4.734205548E-3,2.412917651E-2
6.952524020E-1,9.162978269E-3,1.221730490E-3,2.290744707E-2
6.974887920E-1,6.719517522E-3,2.443460980E-3,2.275473066E-2
6.997217020E-1,6.719517522E-3,0.000000000E0,2.519819140E-2
7.019495460E-1,9.010262787E-3,-4.886921961E-3,2.519819140E-2
7.041977760E-1,7.788531948E-3,-6.108652335E-3,2.519819140E-2
7.064342260E-1,9.010262787E-3,-7.330383174E-3,2.397646010E-2
7.086739720E-1,8.857546374E-3,-1.343903504E-2,2.519819140E-2
7.109081030E-1,7.635815535E-3,-1.572977938E-2,2.397646010E-2
7.131436990E-1,9.926560335E-3,-1.954768784E-2,2.397646010E-2
7.153799050E-1,8.704829961E-3,-2.061670274E-2,2.275473066E-2
7.176151950E-1,1.114829071E-2,-2.076941915E-2,2.153299935E-2
7.198474340E-1,1.007927675E-2,-1.832595654E-2,2.275473066E-2
7.220782690E-1,1.007927675E-2,-1.832595654E-2,2.275473066E-2
7.243258280E-1,1.007927675E-2,-1.710422710E-2,2.153299935E-2
7.265627660E-1,1.007927675E-2,-1.466076635E-2,2.397646010E-2
7.288031840E-1,1.145372353E-2,-1.099557430E-2,2.275473066E-2
7.310359720E-1,1.023199316E-2,-1.099557430E-2,1.908953860E-2
7.332567360E-1,9.010262787E-3,-1.099557430E-2,1.908953860E-2
7.354957500E-1,6.566801574E-3,-6.108652335E-3,2.153299935E-2
7.377401950E-1,5.345070735E-3,-6.108652335E-3,2.031126991E-2
7.399712130E-1,7.788531948E-3,-6.108652335E-3,2.153299935E-2
7.422195650E-1,5.192354787E-3,-1.084285788E-2,2.275473066E-2
7.444533910E-1,2.748893574E-3,-1.206458826E-2,2.031126991E-2
7.466910620E-1,3.970623948E-3,-1.206458826E-2,2.153299935E-2
7.489161600E-1,2.748893574E-3,-1.450804994E-2,2.275473066E-2
7.511626810E-1,-1.069014193E-3,-1.557706390E-2,2.397646010E-2
7.533995580E-1,1.527163113E-4,-1.924225502E-2,2.397646010E-2
7.556378390E-1,-1.221730490E-3,-2.290744707E-2,2.382374369E-2
7.578716650E-1,-0.000000000E0,-2.535090782E-2,2.260201424E-2
7.601078100E-1,-1.527163113E-4,-3.145955876E-2,2.382374369E-2
7.623448100E-1,3.512475174E-3,-3.268129006E-2,2.504547499E-2
7.645818700E-1,1.069014193E-3,-3.634648025E-2,2.626720630E-2
7.668172220E-1,4.581489135E-3,-4.123340547E-2,2.748893574E-2
7.690535500E-1,5.803219974E-3,-4.489859566E-2,2.748893574E-2
7.712898780E-1,3.207042580E-3,-4.963280261E-2,2.871066704E-2
7.735264500E-1,4.428773187E-3,-5.100724846E-2,3.237585723E-2
7.757598480E-1,1.832595794E-3,-5.574145541E-2,2.993239649E-2
7.779873880E-1,3.054326167E-3,-5.574145541E-2,2.993239649E-2
7.802359840E-1,1.023199316E-2,-6.200282276E-2,2.993239649E-2
7.824732890E-1,7.788531948E-3,-6.429356337E-2,2.993239649E-2
7.847116310E-1,1.145372353E-2,-6.566801667E-2,2.748893574E-2
7.869452130E-1,1.145372353E-2,-6.566801667E-2,2.871066704E-2
7.891812360E-1,1.267545391E-2,-6.811147183E-2,2.871066704E-2
7.914178690E-1,1.389718428E-2,-6.688974798E-2,2.748893574E-2
7.936543800E-1,1.634064503E-2,-6.933320314E-2,2.626720630E-2
7.958907080E-1,1.511891466E-2,-7.055493444E-2,2.748893574E-2
7.981272800E-1,1.756237634E-2,-7.299839705E-2,2.504547499E-2
8.003643410E-1,1.878410578E-2,-7.422012836E-2,2.015855350E-2
8.025999370E-1,2.000583708E-2,-7.315111160E-2,1.771509275E-2
8.048362650E-1,2.015855350E-2,-6.948592514E-2,1.527163107E-2
8.070723490E-1,2.138028294E-2,-6.704246253E-2,1.160643995E-2
8.093089210E-1,2.275473066E-2,-5.971207842E-2,9.315694682E-3
8.115454930E-1,2.290744707E-2,-5.497787148E-2,9.315694682E-3
8.137788910E-1,2.428189293E-2,-5.009094998E-2,8.093964309E-3
8.160067970E-1,2.932153270E-2,-4.535674304E-2,5.650503561E-3
8.182559430E-1,3.069597855E-2,-3.924809024E-2,4.428773187E-3
8.204911110E-1,3.084869497E-2,-2.962696366E-2,3.359758761E-3
8.227308570E-1,3.711006418E-2,-2.244929783E-2,9.162978968E-4
8.249646830E-1,3.863722831E-2,-1.404990070E-2,1.069014193E-3
8.272005230E-1,4.001167417E-2,-7.941247895E-3,-2.596177394E-3
8.294366680E-1,4.001167417E-2,-1.832595794E-3,-3.817907767E-3
8.316731790E-1,4.276056588E-2,6.566801574E-3,-6.261368748E-3
8.339097510E-1,4.169155285E-2,1.756237634E-2,-7.483099122E-3
8.361471170E-1,4.673119262E-2,2.351831272E-2,-8.552113548E-3
8.383823460E-1,4.321871698E-2,2.962696366E-2,-9.773843922E-3
8.406187970E-1,4.459316283E-2,3.802636266E-2,-1.343903504E-2
8.428523170E-1,4.352414981E-2,4.169155285E-2,-1.343903504E-2
8.450806500E-1,4.108068720E-2,4.306599870E-2,-1.221730467E-2
8.473279640E-1,3.619376570E-2,4.306599870E-2,-1.221730467E-2
8.495642920E-1,3.512475267E-2,5.283984542E-2,-1.099557430E-2
8.518038540E-1,3.375030309E-2,5.161811411E-2,-9.773843922E-3
8.540381690E-1,3.008511290E-2,5.177082866E-2,-6.108652335E-3
8.562735210E-1,2.641992271E-2,5.177082866E-2,-4.886921961E-3
8.585098490E-1,1.893682219E-2,4.825835302E-2,-5.039638374E-3
8.607462380E-1,1.649336144E-2,4.963280261E-2,-3.817907767E-3
8.629830540E-1,1.267545391E-2,4.718934000E-2,1.069014193E-3
8.652193820E-1,2.901609987E-3,4.734205827E-2,2.138028387E-3
8.674556500E-1,-2.138028387E-3,4.505131021E-2,4.581489135E-3
8.696922220E-1,-7.177666761E-3,4.153883830E-2,9.468411095E-3
8.719295270E-1,-9.773843922E-3,3.787364438E-2,1.175915636E-2
8.741648780E-1,-1.710422710E-2,3.451388702E-2,1.420261711E-2
8.764012060E-1,-2.351831272E-2,2.977968007E-2,1.771509275E-2
8.786333830E-1,-2.977968007E-2,2.611448988E-2,2.260201424E-2
8.808573220E-1,-3.344487399E-2,2.260201424E-2,2.382374369E-2
8.831058570E-1,-3.848451003E-2,2.031126991E-2,2.733621933E-2
8.853470680E-1,-4.092797264E-2,2.031126991E-2,2.977968007E-2
8.875845550E-1,-4.612032697E-2,1.191187184E-2,3.222314268E-2
8.898100800E-1,-4.993823543E-2,7.177666761E-3,3.344487399E-2
8.920559910E-1,-5.115996301E-2,3.512475174E-3,3.329215571E-2
8.942928690E-1,-5.115996301E-2,3.512475174E-3,3.573561832E-2
8.965327970E-1,-5.375614017E-2,0.000000000E0,4.062253982E-2
8.987652810E-1,-5.375614017E-2,-1.221730490E-3,3.940080851E-2
9.010018530E-1,-5.497787148E-2,-2.443460980E-3,4.062253982E-2
9.032380590E-1,-5.146539584E-2,-4.886921961E-3,4.062253982E-2
9.054747530E-1,-4.902193695E-2,-5.039638374E-3,4.428773001E-2
9.077090670E-1,-4.886921868E-2,-2.596177394E-3,4.428773001E-2
9.099355690E-1,-4.764748737E-2,-1.527163113E-4,4.184427112E-2
9.121837380E-1,-4.031710699E-2,-1.527163084E-3,4.321871698E-2
9.144200050E-1,-3.772092983E-2,9.162978968E-4,4.444044828E-2
9.166595680E-1,-3.405573592E-2,3.207042580E-3,4.199698567E-2
9.188932110E-1,-3.145955876E-2,6.872233935E-3,4.092797264E-2
9.211295390E-1,-2.397646010E-2,9.010262787E-3,4.214970022E-2
9.233663550E-1,-2.153299935E-2,9.010262787E-3,4.092797264E-2
9.256034160E-1,-1.771509275E-2,1.496619824E-2,4.230241850E-2
9.278389500E-1,-1.145372353E-2,1.970040426E-2,3.985895589E-2
9.300750340E-1,-6.414085161E-3,2.336559631E-2,3.863722831E-2
9.323113630E-1,-2.748893574E-3,2.809980139E-2,3.634648025E-2
9.345478740E-1,4.886921961E-3,3.283400834E-2,3.390302137E-2
9.367842630E-1,1.099557430E-2,3.634648025E-2,3.405573592E-2
9.390205910E-1,1.481348183E-2,4.108068720E-2,3.161227703E-2
9.412574680E-1,1.847867295E-2,4.108068720E-2,3.039054573E-2
9.434947120E-1,1.863138936E-2,4.108068720E-2,2.916881628E-2
9.457267060E-1,2.229658142E-2,4.337143153E-2,2.916881628E-2
9.479536960E-1,2.596177347E-2,4.337143153E-2,2.687807009E-2
9.502024150E-1,3.100141138E-2,4.444044828E-2,2.565634064E-2
9.524390480E-1,2.962696366E-2,4.077525437E-2,2.321287990E-2
9.546785500E-1,2.840523422E-2,3.604105115E-2,2.443460934E-2
9.569119480E-1,2.947424725E-2,3.115412779E-2,2.428189293E-2
9.591486430E-1,2.947424725E-2,2.871066704E-2,2.428189293E-2
9.613861910E-1,3.054326214E-2,2.382374369E-2,2.428189293E-2
9.636214210E-1,3.176499158E-2,2.260201424E-2,2.672535367E-2
9.658578100E-1,3.023782931E-2,1.282817032E-2,2.794708498E-2
9.680947490E-1,2.779436857E-2,8.093964309E-3,3.039054573E-2
9.703304050E-1,2.519819140E-2,5.650503561E-3,3.161227703E-2
9.725670390E-1,2.886338346E-2,1.985311974E-3,3.039054573E-2
9.748033670E-1,2.748893574E-2,-6.414085161E-3,3.283400834E-2
9.770398170E-1,2.244929783E-2,-8.857546374E-3,3.390302137E-2
9.792762670E-1,2.611448988E-2,-1.252273750E-2,3.512475267E-2
9.815127170E-1,2.474004216E-2,-1.863138936E-2,3.878994286E-2
9.837491670E-1,2.092213556E-2,-2.092213556E-2,3.878994286E-2
9.859856170E-1,2.703078650E-2,-2.596177347E-2,4.001167417E-2
9.882220670E-1,2.199114859E-2,-2.703078650E-2,4.245513305E-2
9.904459450E-1,1.817324013E-2,-3.054326214E-2,4.474587739E-2
9.926828220E-1,1.695151068E-2,-3.298672289E-2,4.596760869E-2
9.949195780E-1,1.817324013E-2,-3.176499158E-2,4.474587739E-2
9.971566380E-1,2.046398632E-2,-3.909537569E-2,4.352414981E-2
9.993920510E-1,1.679879427E-2,-4.153883830E-2,4.474587739E-2
1.001628806E0,1.313360315E-2,-4.138612002E-2,4.230241850E-2
1.003864951E0,1.191187184E-2,-4.260785133E-2,4.108068720E-2
1.006104698E0,1.557706390E-2,-4.260785133E-2,3.985895589E-2
1.008352562E0,1.557706390E-2,-4.138612002E-2,3.985895589E-2
1.010588646E0,1.679879427E-2,-4.153883830E-2,4.108068720E-2
1.012822349E0,1.802052557E-2,-4.031710699E-2,4.108068720E-2
1.015048118E0,1.817324013E-2,-3.665191308E-2,3.863722831E-2
1.017295066E0,2.183843218E-2,-3.436116874E-2,3.878994286E-2
1.019531638E0,2.076941915E-2,-3.069597855E-2,3.756821156E-2
1.021770529E0,2.076941915E-2,-2.825251780E-2,3.512475267E-2
1.024004234E0,2.214386500E-2,-2.458732575E-2,3.512475267E-2
1.026240562E0,2.214386500E-2,-2.214386500E-2,3.512475267E-2
1.028477134E0,2.351831272E-2,-1.847867295E-2,3.390302137E-2
1.030713828E0,1.985312067E-2,-1.481348183E-2,3.145955876E-2
1.032948386E0,1.618792862E-2,-1.114829071E-2,3.145955876E-2
1.035174705E0,1.511891466E-2,-6.261368748E-3,3.145955876E-2
1.037423240E0,1.404990070E-2,-1.374446787E-3,3.145955876E-2
1.039655966E0,9.162978269E-3,3.512475174E-3,3.023782931E-2
1.041879722E0,6.719517522E-3,2.443460980E-3,3.145955876E-2
1.044120200E0,2.901609987E-3,2.443460980E-3,3.252857551E-2
1.046368186E0,-6.108652451E-4,6.261368748E-3,3.497203439E-2
1.048608847E0,-4.276056774E-3,1.114829071E-2,3.252857551E-2
1.050845298E0,-9.162978269E-3,1.237002108E-2,3.619376570E-2
1.053074546E0,-1.420261711E-2,1.007927675E-2,3.741549700E-2
1.055302390E0,-1.786780916E-2,1.023199316E-2,3.726277873E-2
1.057551780E0,-2.275473066E-2,1.267545391E-2,3.848451003E-2
1.059790671E0,-2.519819140E-2,1.160643995E-2,4.092797264E-2
1.062014488E0,-2.901609987E-2,6.719517522E-3,4.092797264E-2
1.064259605E0,-3.527746722E-2,4.428773187E-3,4.199698567E-2
1.066494590E0,-3.649919853E-2,3.207042580E-3,4.077525437E-2
1.068736594E0,-3.772092983E-2,2.138028387E-3,4.321871698E-2
1.070968650E0,-4.276056588E-2,-3.054326226E-4,4.444044828E-2
1.073205466E0,-4.642575979E-2,-1.374446787E-3,4.566217586E-2
1.075441490E0,-5.024366826E-2,-3.817907767E-3,4.550946131E-2
1.077675437E0,-4.902193695E-2,-6.261368748E-3,4.917465150E-2
1.079902671E0,-5.146539584E-2,-4.886921961E-3,4.673119262E-2
1.082146811E0,-5.513058975E-2,-1.221730490E-3,4.795292020E-2
1.084370994E0,-5.513058975E-2,-1.221730490E-3,4.673119262E-2
1.086628074E0,-5.390885845E-2,-2.443460980E-3,4.795292020E-2
1.088860191E0,-5.757404864E-2,0.000000000E0,4.673119262E-2
1.091100730E0,-6.001751125E-2,-2.290744567E-3,4.673119262E-2
1.093332786E0,-6.001751125E-2,-1.069014193E-3,4.550946131E-2
1.095569419E0,-5.757404864E-2,-3.665191587E-3,4.306599870E-2
1.097802817E0,-5.757404864E-2,-6.108652335E-3,4.184427112E-2
1.100030357E0,-5.879577994E-2,-4.734205548E-3,4.184427112E-2
1.102278953E0,-5.635231733E-2,-6.108652335E-3,3.817907721E-2
1.104516196E0,-5.635231733E-2,-3.665191587E-3,3.695734590E-2
1.106754355E0,-5.497787148E-2,-1.221730490E-3,3.695734590E-2
1.108987876E0,-5.497787148E-2,0.000000000E0,3.084869497E-2
1.111222923E0,-5.238169432E-2,0.000000000E0,2.840523422E-2
1.113460593E0,-5.482515693E-2,3.665191587E-3,2.596177347E-2
1.115697105E0,-5.360342562E-2,2.443460980E-3,2.474004216E-2
1.117933982E0,-5.100724846E-2,5.955935922E-3,2.229658142E-2
1.120170310E0,-5.222897977E-2,9.621127509E-3,2.107485011E-2
1.122407310E0,-5.345070735E-2,9.621127509E-3,2.107485011E-2
1.124642661E0,-5.100724846E-2,9.621127509E-3,1.985312067E-2
1.126879234E0,-5.192354694E-2,1.939497143E-2,1.634064503E-2
1.129115318E0,-5.314527452E-2,2.183843218E-2,1.389718428E-2
1.131351951E0,-5.054909736E-2,2.412917651E-2,1.267545391E-2
1.133588462E0,-5.054909736E-2,2.901609987E-2,1.145372353E-2
1.135824790E0,-5.039638281E-2,3.634648025E-2,1.023199316E-2
1.138061484E0,-5.146539584E-2,4.123340547E-2,1.023199316E-2
1.140298911E0,-5.009094998E-2,4.963280261E-2,9.010262787E-3
1.142534080E0,-4.749477282E-2,5.329799280E-2,7.941247895E-3
1.144767600E0,-5.115996301E-2,5.818491429E-2,5.497787148E-3
1.146994407E0,-5.100724846E-2,6.551529467E-2,7.941247895E-3
1.149243308E0,-4.978551716E-2,6.658431143E-2,7.941247895E-3
1.151479819E0,-4.963280261E-2,7.269296050E-2,5.497787148E-3
1.153719200E0,-4.963280261E-2,7.269296050E-2,7.941247895E-3
1.155952781E0,-4.825835302E-2,8.002334833E-2,9.162978269E-3
1.158190025E0,-5.054909736E-2,8.368854225E-2,9.162978269E-3
1.160425376E0,-5.177082866E-2,8.613199741E-2,9.162978269E-3
1.162661704E0,-4.948008433E-2,8.124507964E-2,1.038470957E-2
1.164897788E0,-5.070181563E-2,8.124507964E-2,9.162978269E-3
1.167134544E0,-4.703662544E-2,7.987063378E-2,1.038470957E-2
1.169370750E0,-4.581489414E-2,7.620543987E-2,1.160643995E-2
1.171607505E0,-4.337143153E-2,7.620543987E-2,1.664607786E-2
1.173843833E0,-4.474587739E-2,7.009678334E-2,1.893682219E-2
1.176078147E0,-4.001167417E-2,6.398813426E-2,2.260201424E-2
1.178304282E0,-3.894266114E-2,5.787948146E-2,2.382374369E-2
1.180553367E0,-3.665191308E-2,5.177082866E-2,2.626720630E-2
1.182790183E0,-3.298672289E-2,5.054909736E-2,2.871066704E-2
1.185029014E0,-3.191770986E-2,4.199698567E-2,2.993239649E-2
1.187262107E0,-2.718350291E-2,3.222314268E-2,3.604105115E-2
1.189498618E0,-2.855795063E-2,2.855795063E-2,3.726277873E-2
1.191735190E0,-2.748893574E-2,2.122756653E-2,3.726277873E-2
1.193972556E0,-2.519819140E-2,1.389718428E-2,3.726277873E-2
1.196207786E0,-1.908953860E-2,9.010262787E-3,3.848451003E-2
1.198444236E0,-2.168571576E-2,1.832595794E-3,3.848451003E-2
1.200680503E0,-2.168571576E-2,6.108652451E-4,3.604105115E-2
1.202917075E0,-1.695151068E-2,-8.093964309E-3,3.604105115E-2
1.205153464E0,-1.450804994E-2,-9.315694682E-3,3.359758854E-2
1.207389976E0,-1.328631863E-2,-1.298088674E-2,3.237585723E-2
1.209626609E0,-1.221730467E-2,-1.542434748E-2,3.115412779E-2
1.211859886E0,-1.099557430E-2,-1.664607786E-2,2.871066704E-2
1.214083030E0,-1.343903504E-2,-2.031126991E-2,2.504547499E-2
1.216335288E0,-1.099557430E-2,-2.275473066E-2,2.382374369E-2
1.218571617E0,-1.221730467E-2,-2.275473066E-2,2.138028294E-2
1.220812461E0,-1.343903504E-2,-2.153299935E-2,2.138028294E-2
1.223044822E0,-1.221730467E-2,-2.031126991E-2,2.138028294E-2
1.225281150E0,-1.099557430E-2,-2.031126991E-2,1.771509275E-2
1.227517966E0,-1.588249579E-2,-2.138028294E-2,1.511891466E-2
1.229752341E0,-1.572977938E-2,-1.649336144E-2,1.527163107E-2
1.231975974E0,-1.695151068E-2,-1.527163107E-2,1.389718428E-2
1.234215171E0,-1.435533352E-2,-1.175915636E-2,1.282817032E-2
1.236462913E0,-1.557706390E-2,-6.872233935E-3,1.282817032E-2
1.238702475E0,-1.420261711E-2,-3.207042580E-3,1.404990070E-2
1.240935996E0,-1.420261711E-2,-7.635815418E-4,1.282817032E-2
1.243160300E0,-1.527163107E-2,6.414085161E-3,1.160643995E-2
1.245409324E0,-1.389718428E-2,1.374446787E-2,1.160643995E-2
1.247643393E0,-1.007927675E-2,1.603521220E-2,1.053742506E-2
1.249873008E0,-1.252273750E-2,2.107485011E-2,9.315694682E-3
1.252118247E0,-1.359175146E-2,2.825251780E-2,1.175915636E-2
1.254355308E0,-1.099557430E-2,3.436116874E-2,1.175915636E-2
1.256593833E0,-1.099557430E-2,3.558290005E-2,1.053742506E-2
1.258827293E0,-1.206458826E-2,4.169155285E-2,1.175915636E-2
1.261063560E0,-9.621127509E-3,4.520402849E-2,1.069014147E-2
1.263300498E0,-7.024950348E-3,5.115996301E-2,1.191187184E-2
1.265537986E0,-8.093964309E-3,5.604688451E-2,1.313360315E-2
1.267770468E0,-6.872233935E-3,5.971207842E-2,1.435533352E-2
1.269999107E0,-3.054326167E-3,6.093380973E-2,1.679879427E-2
1.272245384E0,-1.832595794E-3,6.444628537E-2,1.572977938E-2
1.274482322E0,-5.497787148E-3,6.215553731E-2,1.557706390E-2
1.276721396E0,-6.872233935E-3,5.971207842E-2,1.802052557E-2
1.278951987E0,-8.093964309E-3,5.971207842E-2,1.924225502E-2
1.281176841E0,-1.053742506E-2,5.742133409E-2,1.924225502E-2
1.283417014E0,-8.246680722E-3,5.375614017E-2,1.924225502E-2
1.285664207E0,-1.069014147E-2,5.009094998E-2,2.168571576E-2
1.287903708E0,-1.206458826E-2,4.642575979E-2,2.412917651E-2
1.290139609E0,-1.710422710E-2,4.169155285E-2,2.397646010E-2
1.292372947E0,-1.847867295E-2,3.207042441E-2,2.519819140E-2
1.294609946E0,-2.122756653E-2,2.367102914E-2,2.886338346E-2
1.296846275E0,-2.122756653E-2,1.878410578E-2,2.993239649E-2
1.299083030E0,-2.260201424E-2,1.267545391E-2,2.993239649E-2
1.301320152E0,-2.397646010E-2,9.010262787E-3,3.359758854E-2
1.303555564E0,-2.168571576E-2,4.123340361E-3,3.848451003E-2
1.305792075E0,-2.183843218E-2,-1.832595794E-3,3.726277873E-2
1.308024924E0,-2.306016348E-2,-5.497787148E-3,3.970624134E-2
1.310252769E0,-2.443460934E-2,-1.038470957E-2,4.092797264E-2
1.312501060E0,-2.199114859E-2,-1.282817032E-2,4.214970022E-2
1.314737632E0,-2.076941915E-2,-1.160643995E-2,4.459316283E-2
1.316977012E0,-1.725694351E-2,-1.771509275E-2,4.581489414E-2
1.319211570E0,-1.710422710E-2,-1.404990070E-2,4.703662544E-2
1.321446861E0,-1.481348183E-2,-1.664607786E-2,4.703662544E-2
1.323683494E0,-8.552113548E-3,-1.420261711E-2,4.581489414E-2
1.325920249E0,-6.108652335E-3,-1.435533352E-2,4.596760869E-2
1.328156089E0,-4.886921961E-3,-1.557706390E-2,4.718934000E-2
1.330392417E0,1.374446787E-3,-1.328631863E-2,4.718934000E-2
1.332628562E0,8.704829961E-3,-1.099557430E-2,4.612032697E-2
1.334865562E0,1.252273750E-2,-6.261368748E-3,4.734205827E-2
1.337102622E0,1.389718428E-2,-3.817907767E-3,4.612032697E-2
1.339338035E0,2.000583708E-2,-1.527163084E-3,4.367686436E-2
1.341574546E0,2.504547499E-2,3.207042580E-3,4.505131021E-2
1.343807700E0,3.252857551E-2,7.941247895E-3,4.260785133E-2
1.346035484E0,3.512475267E-2,1.160643995E-2,3.649919853E-2
1.348283530E0,4.138612002E-2,1.878410578E-2,3.665191308E-2
1.350520103E0,4.520402849E-2,2.229658142E-2,3.420845419E-2
1.352759666E0,4.657847434E-2,2.718350291E-2,3.298672289E-2
1.354994041E0,5.039638281E-2,3.191770986E-2,2.947424725E-2
1.357229331E0,5.039638281E-2,3.436116874E-2,2.580905706E-2
1.359465659E0,5.299255997E-2,3.787364438E-2,2.336559631E-2
1.361701804E0,5.421429127E-2,3.787364438E-2,2.214386500E-2
1.363938804E0,5.192354694E-2,4.276056588E-2,2.336559631E-2
1.366174949E0,5.436700583E-2,4.398229718E-2,2.214386500E-2
1.368411460E0,5.681046844E-2,4.520402849E-2,1.847867295E-2
1.370647849E0,5.314527452E-2,4.153883830E-2,1.725694351E-2
1.372888083E0,5.177082866E-2,3.787364438E-2,1.725694351E-2
1.375127524E0,5.054909736E-2,3.680463135E-2,1.847867295E-2
1.377345359E0,5.177082866E-2,3.787364438E-2,1.847867295E-2
1.379590049E0,5.177082866E-2,3.436116874E-2,1.603521220E-2
1.381815512E0,4.673119262E-2,3.313944116E-2,1.847867295E-2
1.384069236E0,4.795292020E-2,2.703078650E-2,1.588249579E-2
1.386302818E0,4.413501546E-2,2.596177347E-2,1.832595654E-2
1.388542198E0,4.031710699E-2,2.122756653E-2,2.199114859E-2
1.390776694E0,4.031710699E-2,1.756237634E-2,2.076941915E-2
1.393011802E0,4.016438872E-2,1.511891466E-2,2.443460934E-2
1.395248679E0,3.527746722E-2,1.160643995E-2,2.306016348E-2
1.397485435E0,2.901609987E-2,5.650503561E-3,2.550362423E-2
1.399718345E0,2.901609987E-2,9.315694682E-3,2.550362423E-2
1.401945640E0,2.641992271E-2,4.428773187E-3,2.550362423E-2
1.404193687E0,2.519819140E-2,3.207042580E-3,2.794708498E-2
1.406430564E0,2.015855350E-2,-3.054326226E-4,2.779436857E-2
1.408670981E0,1.771509275E-2,-2.596177394E-3,2.901609987E-2
1.410902732E0,1.267545391E-2,-6.261368748E-3,3.145955876E-2
1.413138816E0,1.023199316E-2,-6.108652335E-3,3.512475267E-2
1.415375755E0,8.857546374E-3,-8.552113548E-3,3.741549700E-2
1.417612754E0,3.817907767E-3,-1.084285788E-2,4.108068720E-2
1.419847190E0,-0.000000000E0,-1.679879427E-2,4.596760869E-2
1.422073264E0,-1.221730490E-3,-1.924225502E-2,4.718934000E-2
1.424321677E0,-5.039638374E-3,-2.168571576E-2,4.703662544E-2
1.426558921E0,-6.261368748E-3,-2.397646010E-2,4.948008433E-2
1.428797508E0,-1.023199316E-2,-3.130684420E-2,5.314527452E-2
1.431030906E0,-1.145372353E-2,-3.237585723E-2,5.436700583E-2
1.433266929E0,-1.267545391E-2,-3.481931984E-2,5.681046844E-2
1.435503745E0,-1.649336144E-2,-3.711006418E-2,5.787948146E-2
1.437737143E0,-1.404990070E-2,-3.848451003E-2,6.047565863E-2
1.439965293E0,-1.527163107E-2,-4.077525437E-2,5.910121277E-2
1.442212424E0,-1.786780916E-2,-4.077525437E-2,6.032294407E-2
1.444438316E0,-1.908953860E-2,-4.199698567E-2,6.154467165E-2
1.446688620E0,-1.649336144E-2,-4.077525437E-2,6.032294407E-2
1.448921652E0,-1.771509275E-2,-3.833179548E-2,6.398813426E-2
1.451161337E0,-1.908953860E-2,-4.321871698E-2,6.276640296E-2
1.453395103E0,-1.908953860E-2,-4.077525437E-2,6.154467165E-2
1.455631187E0,-2.138028294E-2,-3.833179548E-2,6.154467165E-2
1.457867820E0,-2.275473066E-2,-4.077525437E-2,5.910121277E-2
1.460105918E0,-2.138028294E-2,-3.711006418E-2,6.032294407E-2
1.462347007E0,-2.382374369E-2,-3.711006418E-2,6.032294407E-2
1.464576804E0,-2.504547499E-2,-3.573561832E-2,6.398813426E-2
1.466813865E0,-2.977968007E-2,-2.718350291E-2,6.276640296E-2
1.469049583E0,-3.222314268E-2,-2.596177347E-2,6.032294407E-2
1.471286521E0,-3.833179548E-2,-2.458732575E-2,5.910121277E-2
1.473522483E0,-4.077525437E-2,-2.092213556E-2,5.665775016E-2
1.475755637E0,-4.673119262E-2,-1.359175146E-2,5.161811411E-2
1.477981040E0,-5.024366826E-2,-5.039638374E-3,5.039638281E-2
1.480218284E0,-5.513058975E-2,-2.443460980E-3,4.673119262E-2
1.482453269E0,-5.635231733E-2,-2.443460980E-3,4.550946131E-2
1.484692954E0,-5.864306539E-2,2.443460980E-3,4.428773001E-2
1.486932028E0,-6.475171447E-2,3.817907767E-3,4.428773001E-2
1.489180870E0,-6.719517708E-2,3.817907767E-3,4.306599870E-2
1.491416893E0,-6.963863969E-2,5.192354787E-3,4.291328415E-2
1.493653404E0,-7.208210230E-2,6.414085161E-3,4.046982154E-2
1.495886741E0,-7.696902007E-2,1.007927675E-2,4.046982154E-2
1.498124168E0,-8.307767659E-2,1.389718428E-2,3.924809024E-2
1.500359702E0,-8.536841720E-2,1.634064503E-2,3.802636266E-2
1.502596091E0,-8.796459436E-2,1.511891466E-2,3.558290005E-2
1.504832176E0,-9.285151958E-2,1.404990070E-2,3.543018550E-2
1.507068931E0,-9.269879758E-2,1.893682219E-2,3.543018550E-2
1.509305259E0,-9.392052889E-2,2.015855350E-2,3.176499158E-2
1.511541587E0,-9.880745411E-2,2.153299935E-2,3.298672289E-2
1.513778159E0,-1.000291854E-1,2.153299935E-2,3.176499158E-2
1.516015464E0,-9.758572280E-2,2.015855350E-2,2.932153270E-2
1.518250877E0,-9.636399150E-2,2.138028294E-2,2.809980139E-2
1.520487449E0,-9.514226019E-2,1.893682219E-2,2.443460934E-2
1.522720420E0,-9.392052889E-2,1.771509275E-2,2.565634064E-2
1.524947837E0,-9.147707373E-2,1.771509275E-2,2.443460934E-2
1.527196372E0,-8.903361112E-2,1.649336144E-2,2.336559631E-2
1.529432944E0,-8.521570265E-2,1.878410578E-2,1.970040426E-2
1.531672630E0,-8.032877743E-2,1.985312067E-2,1.847867295E-2
1.533906821E0,-7.788532227E-2,1.496619824E-2,1.603521220E-2
1.536141990E0,-7.040221989E-2,1.847867295E-2,1.496619824E-2
1.538379050E0,-6.795875728E-2,1.725694351E-2,1.496619824E-2
1.540614768E0,-6.688974798E-2,1.481348183E-2,1.374446787E-2
1.542847312E0,-6.429356337E-2,1.832595654E-2,1.496619824E-2
1.545087730E0,-5.803219974E-2,1.939497143E-2,1.252273750E-2
1.547323997E0,-5.192354694E-2,2.183843218E-2,1.023199316E-2
1.549561729E0,-5.054909736E-2,2.290744707E-2,9.010262787E-3
1.551798179E0,-4.581489414E-2,2.046398632E-2,1.145372353E-2
1.554033286E0,-4.077525437E-2,2.031126991E-2,1.023199316E-2
1.556269920E0,-3.833179548E-2,2.031126991E-2,1.267545391E-2
1.558505943E0,-3.711006418E-2,1.908953860E-2,1.267545391E-2
1.560742820E0,-3.466660157E-2,1.786780916E-2,1.145372353E-2
1.562979148E0,-3.222314268E-2,1.771509275E-2,1.160643995E-2
1.565215659E0,-2.611448988E-2,1.634064503E-2,1.404990070E-2
1.567451987E0,-2.733621933E-2,1.649336144E-2,1.160643995E-2
1.569689353E0,-2.748893574E-2,1.160643995E-2,9.162978269E-3
1.571924888E0,-2.733621933E-2,1.649336144E-2,1.160643995E-2
1.574161216E0,-2.367102914E-2,1.267545391E-2,9.162978269E-3
1.576397056E0,-2.504547499E-2,1.267545391E-2,9.162978269E-3
1.578630881E0,-2.626720630E-2,1.160643995E-2,7.941247895E-3
1.580858421E0,-2.489275858E-2,1.267545391E-2,7.941247895E-3
1.583106589E0,-2.504547499E-2,1.038470957E-2,5.497787148E-3
1.585343467E0,-2.382374369E-2,6.719517522E-3,4.276056774E-3
1.587580894E0,-2.260201424E-2,6.566801574E-3,1.832595794E-3
1.589804099E0,-2.260201424E-2,5.497787148E-3,4.276056774E-3
1.592052329E0,-2.138028294E-2,1.832595794E-3,6.108652451E-4
1.594288291E0,-2.015855350E-2,4.581489484E-4,-1.832595794E-3
1.596527977E0,-2.138028294E-2,1.832595794E-3,-5.497787148E-3
1.598761619E0,-1.649336144E-2,-7.635815418E-4,-6.719517522E-3
1.600998191E0,-1.664607786E-2,-8.093964309E-3,-6.719517522E-3
1.603234824E0,-1.542434748E-2,-1.053742506E-2,-5.497787148E-3
1.605472007E0,-1.313360315E-2,-1.420261711E-2,-9.162978269E-3
1.607704123E0,-9.468411095E-3,-1.542434748E-2,-9.162978269E-3
1.609932029E0,-7.024950348E-3,-1.557706390E-2,-7.941247895E-3
1.612180992E0,-5.650503561E-3,-1.557706390E-2,-9.162978269E-3
1.614416648E0,4.581489484E-4,-1.450804994E-2,-9.162978269E-3
1.616655905E0,1.679879380E-3,-1.450804994E-2,-9.162978269E-3
1.618888999E0,5.345070735E-3,-1.328631863E-2,-7.788531948E-3
1.621126060E0,9.162978269E-3,-8.552113548E-3,-5.345070735E-3
1.623363120E0,9.162978269E-3,-7.330383174E-3,-6.566801574E-3
1.625598533E0,1.282817032E-2,-8.552113548E-3,-6.566801574E-3
1.627835044E0,1.404990070E-2,-8.704829961E-3,-5.345070735E-3
1.630071128E0,1.786780916E-2,-7.483099122E-3,-3.970623948E-3
1.632307700E0,1.908953860E-2,-6.261368748E-3,-5.192354787E-3
1.634544028E0,2.031126991E-2,-7.483099122E-3,-1.527163084E-3
1.636780601E0,2.397646010E-2,-8.857546374E-3,-3.054326226E-4
1.639017234E0,2.275473066E-2,-7.635815535E-3,-3.054326226E-4
1.641254539E0,2.275473066E-2,-7.635815535E-3,-3.054326226E-4
1.643489829E0,2.031126991E-2,-5.192354787E-3,2.138028387E-3
1.645722251E0,2.138028294E-2,-7.635815535E-3,3.359758761E-3
1.647946617E0,2.153299935E-2,-6.414085161E-3,2.138028387E-3
1.650199119E0,2.260201424E-2,-8.857546374E-3,3.359758761E-3
1.652435691E0,2.031126991E-2,-5.192354787E-3,3.359758761E-3
1.654675925E0,1.786780916E-2,-3.817907767E-3,4.581489135E-3
1.656908591E0,2.153299935E-2,-6.414085161E-3,3.359758761E-3
1.659145896E0,1.649336144E-2,-6.261368748E-3,3.359758761E-3
1.661381431E0,1.404990070E-2,-3.817907767E-3,4.581489135E-3
1.663617515E0,1.420261711E-2,-2.596177394E-3,5.803219974E-3
1.665853599E0,1.420261711E-2,-1.527163113E-4,4.581489135E-3
1.668090354E0,1.160643995E-2,-3.817907767E-3,3.207042580E-3
1.670326804E0,1.038470957E-2,-3.665191587E-3,5.650503561E-3
1.672563316E0,9.162978269E-3,-2.443460980E-3,3.207042580E-3
1.674796104E0,1.053742506E-2,1.069014193E-3,7.635815418E-4
1.677022788E0,8.093964309E-3,3.665191587E-3,7.635815418E-4
1.679272300E0,7.024950348E-3,6.108652335E-3,7.635815418E-4
1.681509238E0,7.024950348E-3,8.552113548E-3,-4.123340361E-3
1.683749778E0,8.246680722E-3,8.399397135E-3,-5.345070735E-3
1.685981773E0,4.581489135E-3,9.773843922E-3,-6.566801574E-3
1.688217796E0,2.138028387E-3,9.773843922E-3,-7.788531948E-3
1.690453880E0,7.177666761E-3,1.328631863E-2,-7.635815535E-3
1.692691001E0,7.177666761E-3,1.206458826E-2,-1.023199316E-2
1.694928306E0,7.177666761E-3,1.450804994E-2,-7.635815535E-3
1.697163535E0,8.399397135E-3,1.206458826E-2,-1.007927675E-2
1.699400291E0,9.621127509E-3,9.621127509E-3,-8.857546374E-3
1.701636314E0,9.621127509E-3,1.206458826E-2,-7.635815535E-3
1.703872947E0,1.328631863E-2,1.206458826E-2,-6.414085161E-3
1.706109214E0,1.572977938E-2,8.246680722E-3,-6.414085161E-3
1.708345786E0,1.817324013E-2,9.468411095E-3,-7.635815535E-3
1.710582053E0,2.061670274E-2,1.069014147E-2,-8.857546374E-3
1.712818198E0,2.199114859E-2,1.420261711E-2,-8.857546374E-3
1.715054771E0,2.321287990E-2,1.175915636E-2,-7.635815535E-3
1.717291343E0,2.687807009E-2,1.542434748E-2,-5.039638374E-3
1.719527793E0,2.809980139E-2,1.649336144E-2,-7.483099122E-3
1.721764304E0,3.313944116E-2,1.649336144E-2,-8.704829961E-3
1.724000571E0,3.436116874E-2,2.122756653E-2,-9.926560335E-3
1.726236900E0,3.802636266E-2,2.000583708E-2,-7.483099122E-3
1.728470603E0,3.802636266E-2,2.000583708E-2,-1.114829071E-2
1.730696433E0,4.306599870E-2,2.107485011E-2,-8.552113548E-3
1.732931723E0,4.673119262E-2,2.474004216E-2,-9.773843922E-3
1.735170798E0,4.932736978E-2,2.825251780E-2,-9.773843922E-3
1.737421713E0,4.444044828E-2,3.329215571E-2,-8.552113548E-3
1.739655357E0,5.070181563E-2,3.680463135E-2,-8.399397135E-3
1.741882225E0,5.207626149E-2,4.031710699E-2,-7.177666761E-3
1.744128257E0,5.207626149E-2,4.276056588E-2,-4.734205548E-3
1.746364890E0,5.345070735E-2,4.642575979E-2,-5.955935922E-3
1.748605552E0,5.345070735E-2,5.131268129E-2,-3.512475174E-3
1.750837547E0,5.222897977E-2,5.497787148E-2,-3.512475174E-3
1.753071372E0,4.978551716E-2,5.619960278E-2,-2.290744567E-3
1.755299217E0,5.115996301E-2,5.742133409E-2,-1.069014193E-3
1.757549765E0,4.871650413E-2,5.986479297E-2,-1.069014193E-3
1.759790244E0,4.382958263E-2,6.123924255E-2,1.527163113E-4
1.762010153E0,4.138612002E-2,6.123924255E-2,1.527163113E-4
1.764256126E0,3.756821156E-2,5.650503561E-2,-0.000000000E0
1.766490988E0,3.375030309E-2,5.161811411E-2,-1.221730490E-3
1.768731895E0,3.008511290E-2,5.299255997E-2,-0.000000000E0
1.770965171E0,2.382374369E-2,4.825835302E-2,1.069014193E-3
1.773201255E0,1.878410578E-2,4.459316283E-2,-1.527163113E-4
1.775438010E0,1.511891466E-2,4.108068720E-2,-1.527163113E-4
1.777671225E0,6.261368748E-3,3.405573592E-2,-3.054326226E-4
1.779899070E0,1.374446787E-3,3.039054573E-2,-3.054326226E-4
1.782147605E0,-2.596177394E-3,2.076941915E-2,-1.679879380E-3
1.784384910E0,-2.596177394E-3,1.832595654E-2,-1.679879380E-3
1.786622946E0,-7.788531948E-3,7.635815535E-3,-4.581489484E-4
1.788853537E0,-1.649336144E-2,4.581489484E-4,-1.832595794E-3
1.791080650E0,-1.420261711E-2,-6.872233935E-3,6.108652451E-4
1.793329490E0,-1.924225502E-2,-1.282817032E-2,-1.985311974E-3
1.795565757E0,-1.939497143E-2,-1.649336144E-2,-3.207042580E-3
1.797802207E0,-2.550362423E-2,-1.634064503E-2,-4.428773187E-3
1.800027244E0,-2.428189293E-2,-2.122756653E-2,-5.650503561E-3
1.802276206E0,-2.076941915E-2,-2.733621933E-2,-6.872233935E-3
1.804511375E0,-2.199114859E-2,-2.977968007E-2,-1.175915636E-2
1.806749106E0,-2.580905706E-2,-3.207042441E-2,-1.313360315E-2
1.808977622E0,-2.336559631E-2,-3.588833287E-2,-1.802052557E-2
1.811222739E0,-2.351831272E-2,-4.428773001E-2,-2.412917651E-2
1.813456870E0,-2.229658142E-2,-4.795292020E-2,-2.412917651E-2
1.815695152E0,-1.756237634E-2,-5.406157300E-2,-2.412917651E-2
1.817929527E0,-1.618792862E-2,-5.543602258E-2,-2.657263726E-2
1.820167380E0,-1.252273750E-2,-5.665775016E-2,-2.901609987E-2
1.822402732E0,-1.130100712E-2,-5.665775016E-2,-3.145955876E-2
1.824639548E0,-8.857546374E-3,-5.787948146E-2,-3.008511290E-2
1.826876304E0,-5.192354787E-3,-5.436700583E-2,-3.130684420E-2
1.829111900E0,-2.596177394E-3,-5.085453019E-2,-3.130684420E-2
1.831348228E0,4.734205548E-3,-5.207626149E-2,-3.375030309E-2
1.833584556E0,4.886921961E-3,-4.612032697E-2,-3.481931984E-2
1.835821433E0,8.704829961E-3,-4.001167417E-2,-3.726277873E-2
1.838058738E0,1.114829071E-2,-4.016438872E-2,-3.604105115E-2
1.840294028E0,1.374446787E-2,-3.772092983E-2,-3.604105115E-2
1.842530418E0,1.878410578E-2,-3.054326214E-2,-3.466660157E-2
1.844765098E0,1.756237634E-2,-2.809980139E-2,-3.833179548E-2
1.846996909E0,2.015855350E-2,-2.580905706E-2,-4.077525437E-2
1.849239646E0,2.382374369E-2,-2.336559631E-2,-4.077525437E-2
1.851476218E0,2.397646010E-2,-1.725694351E-2,-3.955352306E-2
1.853714561E0,2.275473066E-2,-1.725694351E-2,-3.955352306E-2
1.855949790E0,1.908953860E-2,-1.359175146E-2,-3.833179548E-2
1.858185142E0,2.031126991E-2,-1.359175146E-2,-3.588833287E-2
1.860421653E0,1.802052557E-2,-1.114829071E-2,-3.711006418E-2
1.862657798E0,1.664607786E-2,-1.237002108E-2,-3.466660157E-2
1.864894431E0,9.315694682E-3,-1.221730467E-2,-2.977968007E-2
1.867130943E0,6.872233935E-3,-8.552113548E-3,-2.855795063E-2
1.869367271E0,7.635815418E-4,-8.399397135E-3,-2.871066704E-2
1.871603965E0,6.108652451E-4,-1.328631863E-2,-2.626720630E-2
1.873838462E0,-3.207042580E-3,-1.557706390E-2,-2.626720630E-2
1.876064841E0,-8.093964309E-3,-2.031126991E-2,-2.626720630E-2
1.878313132E0,-1.069014147E-2,-2.275473066E-2,-2.764165215E-2
1.880549095E0,-1.557706390E-2,-2.382374369E-2,-2.519819140E-2
1.882788719E0,-1.817324013E-2,-3.100141138E-2,-2.641992271E-2
1.885022300E0,-2.199114859E-2,-3.466660157E-2,-2.412917651E-2
1.887258628E0,-2.321287990E-2,-3.344487399E-2,-2.168571576E-2
1.889495261E0,-2.703078650E-2,-3.451388702E-2,-1.802052557E-2
1.891732444E0,-2.580905706E-2,-3.940080851E-2,-1.557706390E-2
1.893967612E0,-2.962696366E-2,-4.413501546E-2,-1.435533352E-2
1.896204490E0,-2.962696366E-2,-4.535674304E-2,-1.191187184E-2
1.898441551E0,-2.611448988E-2,-4.795292020E-2,-1.069014147E-2
1.900677390E0,-2.489275858E-2,-5.039638281E-2,-1.191187184E-2
1.902913474E0,-2.611448988E-2,-5.039638281E-2,-1.069014147E-2
1.905149680E0,-2.504547499E-2,-5.513058975E-2,-9.468411095E-3
1.907386313E0,-2.382374369E-2,-5.772676691E-2,-1.313360315E-2
1.909623862E0,-2.138028294E-2,-5.894849449E-2,-1.435533352E-2
1.911858909E0,-2.138028294E-2,-5.894849449E-2,-1.435533352E-2
1.914095359E0,-1.893682219E-2,-6.383541971E-2,-1.679879427E-2
1.916331626E0,-1.527163107E-2,-6.505715102E-2,-1.802052557E-2
1.918568504E0,-1.649336144E-2,-6.750060618E-2,-2.046398632E-2
1.920804832E0,-1.282817032E-2,-6.872233748E-2,-2.168571576E-2
1.923041160E0,-1.038470957E-2,-7.131851465E-2,-2.412917651E-2
1.925277976E0,-5.497787148E-3,-7.009678334E-2,-2.535090782E-2
1.927515220E0,-1.832595794E-3,-6.902777404E-2,-2.641992271E-2
1.929750449E0,-4.581489484E-4,-6.902777404E-2,-3.008511290E-2
1.931987083E0,1.985311974E-3,-6.429356337E-2,-3.008511290E-2
1.934222679E0,5.803219974E-3,-6.307183951E-2,-3.252857551E-2
1.936459556E0,9.468411095E-3,-6.551529467E-2,-3.375030309E-2
1.938692771E0,1.084285788E-2,-5.955936015E-2,-3.619376570E-2
1.940918906E0,1.328631863E-2,-5.589416996E-2,-3.848451003E-2
1.943163535E0,1.588249579E-2,-5.360342562E-2,-3.970624134E-2
1.945406577E0,1.970040426E-2,-5.115996301E-2,-4.092797264E-2
1.947641502E0,2.214386500E-2,-4.764748737E-2,-4.092797264E-2
1.949867454E0,2.351831272E-2,-4.398229718E-2,-4.321871698E-2
1.952114036E0,2.351831272E-2,-4.276056588E-2,-4.444044828E-2
1.954350974E0,2.611448988E-2,-3.924809024E-2,-4.566217586E-2
1.956590293E0,2.611448988E-2,-3.680463135E-2,-4.688390717E-2
1.958820884E0,2.733621933E-2,-3.802636266E-2,-4.444044828E-2
1.961048484E0,2.611448988E-2,-3.558290005E-2,-4.444044828E-2
1.963297691E0,2.748893574E-2,-3.191770986E-2,-4.321871698E-2
1.965532859E0,2.733621933E-2,-3.313944116E-2,-4.444044828E-2
1.967773581E0,2.122756653E-2,-3.176499158E-2,-4.321871698E-2
1.970009361E0,2.000583708E-2,-3.176499158E-2,-4.077525437E-2
1.972242332E0,2.000583708E-2,-3.176499158E-2,-3.955352306E-2
1.974478538E0,1.389718428E-2,-3.176499158E-2,-3.726277873E-2
1.976711081E0,1.389718428E-2,-3.054326214E-2,-3.466660157E-2
1.978940024E0,6.414085161E-3,-3.039054573E-2,-3.481931984E-2
1.981185935E0,5.192354787E-3,-3.268129006E-2,-3.359758854E-2
1.983409751E0,3.054326226E-4,-3.145955876E-2,-3.115412779E-2
1.985651695E0,-5.955935922E-3,-3.375030309E-2,-2.764165215E-2
1.987893882E0,-9.773843922E-3,-3.481931984E-2,-2.519819140E-2
1.990124594E0,-1.832595654E-2,-3.100141138E-2,-2.397646010E-2
1.992373007E0,-1.588249579E-2,-3.359758854E-2,-1.908953860E-2
1.994606528E0,-2.336559631E-2,-3.588833287E-2,-1.679879427E-2
1.996845847E0,-2.580905706E-2,-3.451388702E-2,-1.557706390E-2
1.999080161E0,-3.069597855E-2,-3.451388702E-2,-1.191187184E-2
2.001315452E0,-3.436116874E-2,-3.436116874E-2,-9.468411095E-3
2.003551841E0,-3.817907721E-2,-3.680463135E-2,-7.024950348E-3
2.005784995E0,-3.711006418E-2,-4.046982154E-2,-5.803219974E-3
2.008013084E0,-4.077525437E-2,-3.909537569E-2,-2.138028387E-3
2.010261375E0,-4.550946131E-2,-3.543018550E-2,-1.069014193E-3
2.012497703E0,-4.688390717E-2,-3.894266114E-2,2.596177394E-3
2.014737205E0,-4.810563847E-2,-3.772092983E-2,2.596177394E-3
2.016971458E0,-4.932736978E-2,-3.772092983E-2,2.596177394E-3
2.019206687E0,-5.070181563E-2,-3.894266114E-2,6.261368748E-3
2.021443443E0,-5.192354694E-2,-3.894266114E-2,5.039638374E-3
2.023679283E0,-5.558873713E-2,-3.878994286E-2,7.483099122E-3
2.025916160E0,-5.558873713E-2,-3.878994286E-2,8.704829961E-3
2.028152366E0,-5.314527452E-2,-3.772092983E-2,8.704829961E-3
2.030388755E0,-5.314527452E-2,-3.772092983E-2,7.483099122E-3
2.032625388E0,-5.681046844E-2,-3.634648025E-2,7.483099122E-3
2.034862998E0,-5.558873713E-2,-3.878994286E-2,7.483099122E-3
2.037098533E0,-5.558873713E-2,-3.756821156E-2,6.261368748E-3
2.039334922E0,-5.681046844E-2,-4.245513305E-2,3.817907767E-3
2.041571861E0,-5.940664560E-2,-4.489859566E-2,4.886921961E-3
2.043805991E0,-6.169738993E-2,-4.230241850E-2,3.665191587E-3
2.046035178E0,-5.940664560E-2,-4.718934000E-2,1.221730490E-3
2.048267906E0,-6.307183951E-2,-5.085453019E-2,-0.000000000E0
2.050516929E0,-6.444628537E-2,-5.436700583E-2,-2.443460980E-3
2.052755393E0,-6.704246253E-2,-5.925392732E-2,-3.665191587E-3
2.054992331E0,-7.192938030E-2,-6.276640296E-2,-3.817907767E-3
2.057225669E0,-7.452555746E-2,-6.765332818E-2,-7.483099122E-3
2.059462058E0,-7.590000331E-2,-7.238753140E-2,-8.704829961E-3
2.061698875E0,-7.956519723E-2,-7.238753140E-2,-8.857546374E-3
2.063935264E0,-8.460483700E-2,-7.712173462E-2,-1.007927675E-2
2.066171714E0,-8.704829961E-2,-8.185594529E-2,-1.252273750E-2
2.068407981E0,-8.842274547E-2,-8.429940045E-2,-1.130100712E-2
2.070645103E0,-8.964447677E-2,-9.040805697E-2,-1.267545391E-2
2.072879477E0,-8.735372871E-2,-9.651670605E-2,-1.023199316E-2
2.075112388E0,-8.872817457E-2,-1.024726480E-1,-9.010262787E-3
2.077353233E0,-8.994990587E-2,-1.036943719E-1,-7.788531948E-3
2.079590232E0,-8.994990587E-2,-1.036943719E-1,-7.788531948E-3
2.081827719E0,-8.765916526E-2,-1.061378345E-1,-1.023199316E-2
2.084062888E0,-8.399397135E-2,-1.075122803E-1,-6.566801574E-3
2.086299399E0,-8.506298810E-2,-1.061378345E-1,-9.010262787E-3
2.088536704E0,-8.750644326E-2,-1.036943719E-1,-9.010262787E-3
2.090772117E0,-8.628471941E-2,-1.036943719E-1,-1.023199316E-2
2.093008628E0,-8.139779419E-2,-1.050688252E-1,-1.389718428E-2
2.095244529E0,-7.880161703E-2,-1.026253626E-1,-1.618792862E-2
2.097481467E0,-7.635815442E-2,-1.003346145E-1,-1.496619824E-2
2.099714316E0,-7.391469181E-2,-9.911288321E-2,-1.496619824E-2
2.101942039E0,-6.887505949E-2,-9.804387391E-2,-1.618792862E-2
2.104190696E0,-7.009678334E-2,-9.804387391E-2,-1.863138936E-2
2.106427879E0,-6.261368841E-2,-9.208793938E-2,-1.970040426E-2
2.108666159E0,-5.757404864E-2,-9.101892263E-2,-2.336559631E-2
2.110899741E0,-5.390885845E-2,-8.857546002E-2,-2.336559631E-2
2.113136802E0,-5.268712714E-2,-8.735372871E-2,-2.458732575E-2
2.115372398E0,-4.642575979E-2,-8.384125680E-2,-2.565634064E-2
2.117604820E0,-3.772092983E-2,-8.170322329E-2,-2.443460934E-2
2.119826438E0,-3.145955876E-2,-7.574728876E-2,-2.550362423E-2
2.122070945E0,-2.657263726E-2,-7.452555746E-2,-2.306016348E-2
2.124319236E0,-2.138028294E-2,-6.612616032E-2,-2.412917651E-2
2.126558555E0,-1.511891466E-2,-6.261368841E-2,-2.412917651E-2
2.128793906E0,-1.023199316E-2,-6.032294407E-2,-2.535090782E-2
2.131027244E0,-6.414085161E-3,-5.803219974E-2,-2.641992271E-2
2.133263999E0,-5.192354787E-3,-5.192354694E-2,-2.519819140E-2
2.135500083E0,2.290744567E-3,-4.841107130E-2,-2.519819140E-2
2.137733725E0,7.330383174E-3,-4.367686436E-2,-2.504547499E-2
2.139956870E0,8.704829961E-3,-4.001167417E-2,-2.748893574E-2
2.142191978E0,9.926560335E-3,-3.772092983E-2,-2.626720630E-2
2.144445701E0,1.374446787E-2,-3.283400834E-2,-2.504547499E-2
2.146685385E0,1.863138936E-2,-3.176499158E-2,-2.611448988E-2
2.148922934E0,1.863138936E-2,-3.054326214E-2,-2.489275858E-2
2.151155173E0,1.618792862E-2,-3.054326214E-2,-2.367102914E-2
2.153391380E0,1.634064503E-2,-2.809980139E-2,-2.367102914E-2
2.155627769E0,1.878410578E-2,-2.565634064E-2,-2.244929783E-2
2.157864036E0,1.878410578E-2,-2.443460934E-2,-2.122756653E-2
2.160100486E0,1.771509275E-2,-1.725694351E-2,-1.756237634E-2
2.162337302E0,2.015855350E-2,-1.481348183E-2,-2.122756653E-2
2.164573630E0,1.908953860E-2,-1.114829071E-2,-2.000583708E-2
2.166810020E0,1.893682219E-2,-1.481348183E-2,-2.122756653E-2
2.169046470E0,1.786780916E-2,-1.359175146E-2,-2.122756653E-2
2.171282859E0,2.031126991E-2,-1.114829071E-2,-2.000583708E-2
2.173519431E0,2.031126991E-2,-8.704829961E-3,-1.863138936E-2
2.175754965E0,1.802052557E-2,-6.261368748E-3,-2.244929783E-2
2.177986106E0,1.802052557E-2,-5.039638374E-3,-2.122756653E-2
2.180216331E0,1.313360315E-2,-1.374446787E-3,-2.000583708E-2
2.182464927E0,1.557706390E-2,1.069014193E-3,-1.863138936E-2
2.184702964E0,1.679879427E-2,2.290744567E-3,-1.985312067E-2
2.186940573E0,1.817324013E-2,3.359758761E-3,-1.985312067E-2
2.189173972E0,1.817324013E-2,7.024950348E-3,-1.863138936E-2
2.191410240E0,1.939497143E-2,7.024950348E-3,-1.618792862E-2
2.193647117E0,1.817324013E-2,9.468411095E-3,-1.618792862E-2
2.195884422E0,2.076941915E-2,1.069014147E-2,-1.740965992E-2
2.198119712E0,1.832595654E-2,1.313360315E-2,-1.863138936E-2
2.200356101E0,1.954768784E-2,1.435533352E-2,-1.863138936E-2
2.202592429E0,1.588249579E-2,1.435533352E-2,-1.863138936E-2
2.204824912E0,1.588249579E-2,1.435533352E-2,-1.985312067E-2
2.207048179E0,1.466076635E-2,1.191187184E-2,-1.863138936E-2
2.209301597E0,1.450804994E-2,7.177666761E-3,-2.107485011E-2
2.211538413E0,1.328631863E-2,1.084285788E-2,-2.107485011E-2
2.213780051E0,1.084285788E-2,9.621127509E-3,-2.244929783E-2
2.216011191E0,9.621127509E-3,7.177666761E-3,-2.244929783E-2
2.218247642E0,8.246680722E-3,4.886921961E-3,-2.122756653E-2
2.220483482E0,5.955935922E-3,7.330383174E-3,-2.244929783E-2
2.222720298E0,9.162978968E-4,6.108652335E-3,-2.244929783E-2
2.224956992E0,1.069014193E-3,1.099557430E-2,-2.244929783E-2
2.227191794E0,-2.748893574E-3,6.261368748E-3,-2.244929783E-2
2.229415122E0,-2.748893574E-3,3.817907767E-3,-2.367102914E-2
2.231655173E0,-2.748893574E-3,3.817907767E-3,-2.122756653E-2
2.233902000E0,-3.970623948E-3,3.817907767E-3,-2.138028294E-2
2.236141501E0,-6.414085161E-3,3.970623948E-3,-2.015855350E-2
2.238378073E0,-9.010262787E-3,3.054326226E-4,-2.015855350E-2
2.240611655E0,-7.788531948E-3,-9.162978968E-4,-1.771509275E-2
2.242845054E0,-9.010262787E-3,1.527163084E-3,-1.893682219E-2
2.245072288E0,-1.267545391E-2,1.527163084E-3,-1.893682219E-2
2.247320945E0,-1.389718428E-2,3.970623948E-3,-1.649336144E-2
2.249558433E0,-1.374446787E-2,1.007927675E-2,-1.771509275E-2
2.251796591E0,-1.481348183E-2,1.740965992E-2,-1.771509275E-2
2.254027853E0,-1.237002108E-2,1.863138936E-2,-1.527163107E-2
2.256256858E0,-7.483099122E-3,1.847867295E-2,-1.389718428E-2
2.258502830E0,-5.039638374E-3,1.970040426E-2,-1.267545391E-2
2.260739402E0,-3.817907767E-3,1.603521220E-2,-1.267545391E-2
2.262978232E0,-2.596177394E-3,1.710422710E-2,-1.267545391E-2
2.265212363E0,2.290744567E-3,1.343903504E-2,-1.267545391E-2
2.267449729E0,5.955935922E-3,1.572977938E-2,-1.267545391E-2
2.269684653E0,1.221730467E-2,1.572977938E-2,-8.857546374E-3
2.271918540E0,1.466076635E-2,1.557706390E-2,-8.857546374E-3
2.274145530E0,2.321287990E-2,1.420261711E-2,-1.007927675E-2
2.276394187E0,2.443460934E-2,1.542434748E-2,-9.926560335E-3
2.278630454E0,3.054326214E-2,1.527163107E-2,-8.704829961E-3
2.280870018E0,3.558290005E-2,1.756237634E-2,-6.261368748E-3
2.283103660E0,4.046982154E-2,2.000583708E-2,-6.108652335E-3
2.285340964E0,4.413501546E-2,1.740965992E-2,-9.773843922E-3
2.287573264E0,4.657847434E-2,1.618792862E-2,-8.552113548E-3
2.289800620E0,4.780020565E-2,1.618792862E-2,-7.330383174E-3
2.292048667E0,5.024366826E-2,1.618792862E-2,-8.552113548E-3
2.294285484E0,4.780020565E-2,1.374446787E-2,-8.552113548E-3
2.296524864E0,4.902193695E-2,1.130100712E-2,-1.099557430E-2
2.298758445E0,5.146539584E-2,1.007927675E-2,-1.099557430E-2
2.300995017E0,5.009094998E-2,6.414085161E-3,-1.099557430E-2
2.303232322E0,4.886921868E-2,7.635815535E-3,-1.221730467E-2
2.305467673E0,4.382958263E-2,1.679879380E-3,-1.359175146E-2
2.307701255E0,4.260785133E-2,4.581489484E-4,-1.481348183E-2
2.309925376E0,4.153883830E-2,1.679879380E-3,-1.725694351E-2
2.312165122E0,3.787364438E-2,3.054326167E-3,-2.214386500E-2
2.314413108E0,3.649919853E-2,6.108652451E-4,-2.092213556E-2
2.316652426E0,3.405573592E-2,6.108652451E-4,-1.970040426E-2
2.318889060E0,3.161227703E-2,1.985311974E-3,-2.229658142E-2
2.321123618E0,2.657263726E-2,-3.970623948E-3,-2.107485011E-2
2.323358787E0,2.412917651E-2,-5.192354787E-3,-2.107485011E-2
2.325595603E0,2.290744707E-2,-1.527163084E-3,-2.229658142E-2
2.327832298E0,2.046398632E-2,-3.970623948E-3,-2.351831272E-2
2.330068015E0,1.924225502E-2,-3.817907767E-3,-2.474004216E-2
2.332304588E0,1.802052557E-2,-3.817907767E-3,-2.474004216E-2
2.334540855E0,1.679879427E-2,-1.374446787E-3,-2.596177347E-2
2.336777549E0,1.191187184E-2,-3.665191587E-3,-2.489275858E-2
2.339013389E0,1.313360315E-2,-1.374446787E-3,-2.733621933E-2
2.341243614E0,1.084285788E-2,3.512475174E-3,-2.855795063E-2
2.343486167E0,1.084285788E-2,3.512475174E-3,-2.855795063E-2
2.345722434E0,1.084285788E-2,5.955935922E-3,-2.733621933E-2
2.347960899E0,1.206458826E-2,3.512475174E-3,-2.855795063E-2
2.350195762E0,1.084285788E-2,3.512475174E-3,-2.733621933E-2
2.352432273E0,1.206458826E-2,7.177666761E-3,-2.489275858E-2
2.354668845E0,1.206458826E-2,7.177666761E-3,-2.611448988E-2
2.356906089E0,1.206458826E-2,8.399397135E-3,-2.855795063E-2
2.359141196E0,1.466076635E-2,9.621127509E-3,-2.596177347E-2
2.361377769E0,1.588249579E-2,1.069014147E-2,-2.596177347E-2
2.363613853E0,1.832595654E-2,9.468411095E-3,-2.718350291E-2
2.365850730E0,1.710422710E-2,1.313360315E-2,-2.474004216E-2
2.368086997E0,1.970040426E-2,1.802052557E-2,-2.351831272E-2
2.370323325E0,2.092213556E-2,1.786780916E-2,-2.474004216E-2
2.372559958E0,2.214386500E-2,1.908953860E-2,-2.718350291E-2
2.374797385E0,2.580905706E-2,1.786780916E-2,-2.580905706E-2
2.377032310E0,2.580905706E-2,1.908953860E-2,-2.458732575E-2
2.379268943E0,2.718350291E-2,2.015855350E-2,-2.458732575E-2
2.381505210E0,2.580905706E-2,2.031126991E-2,-2.336559631E-2
2.383742149E0,2.580905706E-2,2.031126991E-2,-2.092213556E-2
2.385978477E0,2.596177347E-2,2.153299935E-2,-2.214386500E-2
2.388214927E0,2.229658142E-2,2.275473066E-2,-2.351831272E-2
2.390451316E0,2.458732575E-2,1.908953860E-2,-2.214386500E-2
2.392688743E0,2.092213556E-2,1.786780916E-2,-2.229658142E-2
2.394923606E0,1.832595654E-2,1.557706390E-2,-2.351831272E-2
2.397160544E0,1.588249579E-2,1.313360315E-2,-2.107485011E-2
2.399397483E0,1.710422710E-2,1.435533352E-2,-1.985312067E-2
2.401633201E0,1.466076635E-2,1.191187184E-2,-2.107485011E-2
2.403869468E0,1.328631863E-2,8.399397135E-3,-2.107485011E-2
2.406102561E0,8.246680722E-3,4.886921961E-3,-2.122756653E-2
2.408330710E0,5.803219974E-3,4.886921961E-3,-2.000583708E-2
2.410579917E0,3.207042580E-3,-1.221730490E-3,-1.634064503E-2
2.412815147E0,-1.679879380E-3,1.527163113E-4,-1.267545391E-2
2.415054832E0,-3.054326167E-3,-4.734205548E-3,-1.282817032E-2
2.417287681E0,-5.497787148E-3,-5.803219974E-3,-1.282817032E-2
2.419524619E0,-1.160643995E-2,-5.650503561E-3,-1.160643995E-2
2.421761069E0,-1.420261711E-2,-1.053742506E-2,-1.038470957E-2
2.423997459E0,-1.786780916E-2,-1.038470957E-2,-8.093964309E-3
2.426234031E0,-1.786780916E-2,-7.941247895E-3,-7.941247895E-3
2.428471336E0,-2.031126991E-2,-9.162978269E-3,-9.315694682E-3
2.430706870E0,-2.397646010E-2,-9.162978269E-3,-1.175915636E-2
2.432940024E0,-2.153299935E-2,-6.719517522E-3,-9.315694682E-3
2.435167320E0,-2.519819140E-2,-6.719517522E-3,-6.872233935E-3
2.437415794E0,-2.519819140E-2,-5.497787148E-3,-9.315694682E-3
2.439650535E0,-2.535090782E-2,-7.941247895E-3,-6.872233935E-3
2.441882163E0,-2.519819140E-2,-4.276056774E-3,-5.650503561E-3
2.444114341E0,-2.275473066E-2,-3.054326167E-3,-6.872233935E-3
2.446362388E0,-2.138028294E-2,6.108652451E-4,-7.941247895E-3
2.448599387E0,-2.015855350E-2,4.123340361E-3,-9.162978269E-3
2.450836814E0,-1.756237634E-2,1.023199316E-2,-7.941247895E-3
2.453067405E0,-1.252273750E-2,1.130100712E-2,-9.162978269E-3
2.455295066E0,-1.007927675E-2,1.252273750E-2,-1.038470957E-2
2.457539572E0,-7.483099122E-3,1.725694351E-2,-1.023199316E-2
2.459760825E0,-4.886921961E-3,2.443460934E-2,-1.267545391E-2
2.462007774E0,-1.069014193E-3,2.809980139E-2,-1.511891466E-2
2.464253745E0,2.596177394E-3,2.916881628E-2,-1.374446787E-2
2.466493186E0,5.039638374E-3,3.039054573E-2,-1.618792862E-2
2.468728965E0,7.635815535E-3,3.512475267E-2,-1.863138936E-2
2.470960044E0,1.007927675E-2,3.512475267E-2,-1.985312067E-2
2.473186668E0,1.267545391E-2,3.512475267E-2,-2.107485011E-2
2.475434898E0,1.634064503E-2,3.619376570E-2,-2.351831272E-2
2.477667991E0,1.756237634E-2,3.863722831E-2,-2.336559631E-2
2.479896201E0,1.756237634E-2,3.741549700E-2,-2.580905706E-2
2.482130759E0,1.893682219E-2,3.863722831E-2,-2.703078650E-2
2.484369041E0,1.893682219E-2,3.863722831E-2,-2.947424725E-2
2.486619957E0,2.000583708E-2,3.497203439E-2,-3.069597855E-2
2.488855796E0,2.122756653E-2,3.497203439E-2,-2.825251780E-2
2.491089805E0,2.138028294E-2,3.970624134E-2,-2.703078650E-2
2.493314048E0,2.138028294E-2,3.726277873E-2,-2.947424725E-2
2.495562583E0,2.138028294E-2,3.726277873E-2,-2.703078650E-2
2.497795920E0,2.015855350E-2,3.863722831E-2,-2.580905706E-2
2.500027549E0,2.000583708E-2,3.619376570E-2,-2.580905706E-2
2.502271873E0,1.634064503E-2,3.252857551E-2,-2.596177347E-2
2.504508445E0,1.511891466E-2,3.497203439E-2,-2.474004216E-2
2.506747153E0,1.130100712E-2,2.779436857E-2,-2.229658142E-2
2.508979758E0,8.704829961E-3,2.672535367E-2,-2.107485011E-2
2.511214744E0,6.261368748E-3,2.306016348E-2,-2.229658142E-2
2.513460044E0,-0.000000000E0,2.321287990E-2,-2.244929783E-2
2.515690452E0,-3.665191587E-3,2.076941915E-2,-2.122756653E-2
2.517929099E0,-6.261368748E-3,1.725694351E-2,-1.878410578E-2
2.520158408E0,-1.237002108E-2,1.618792862E-2,-1.649336144E-2
2.522387595E0,-1.725694351E-2,1.740965992E-2,-1.649336144E-2
2.524635520E0,-1.863138936E-2,1.267545391E-2,-1.404990070E-2
2.526872398E0,-2.122756653E-2,1.145372353E-2,-1.282817032E-2
2.529111473E0,-2.611448988E-2,1.160643995E-2,-1.038470957E-2
2.531345054E0,-2.855795063E-2,1.038470957E-2,-1.175915636E-2
2.533581626E0,-3.100141138E-2,8.093964309E-3,-1.298088674E-2
2.535818992E0,-3.604105115E-2,3.207042580E-3,-1.298088674E-2
2.538051352E0,-3.497203439E-2,7.635815418E-4,-1.175915636E-2
2.540279136E0,-3.497203439E-2,-2.901609987E-3,-1.053742506E-2
2.542527671E0,-3.756821156E-2,-7.635815535E-3,-1.435533352E-2
2.544763511E0,-3.772092983E-2,-1.374446787E-2,-1.557706390E-2
2.547002890E0,-3.756821156E-2,-1.374446787E-2,-1.679879427E-2
2.549236472E0,-3.894266114E-2,-1.481348183E-2,-1.924225502E-2
2.551473044E0,-3.527746722E-2,-1.740965992E-2,-1.924225502E-2
2.553710349E0,-3.649919853E-2,-2.107485011E-2,-2.046398632E-2
2.555945640E0,-3.283400834E-2,-2.229658142E-2,-2.290744707E-2
2.558182273E0,-3.161227703E-2,-2.596177347E-2,-2.535090782E-2
2.560418296E0,-3.283400834E-2,-2.596177347E-2,-2.779436857E-2
2.562654868E0,-2.672535367E-2,-2.718350291E-2,-2.901609987E-2
2.564891196E0,-2.672535367E-2,-2.611448988E-2,-3.145955876E-2
2.567127769E0,-2.672535367E-2,-2.489275858E-2,-3.145955876E-2
2.569364402E0,-2.290744707E-2,-2.367102914E-2,-3.252857551E-2
2.571601707E0,-1.802052557E-2,-2.504547499E-2,-3.497203439E-2
2.573836997E0,-2.046398632E-2,-2.489275858E-2,-3.497203439E-2
2.576070700E0,-1.802052557E-2,-2.382374369E-2,-3.497203439E-2
2.578298850E0,-1.664607786E-2,-1.771509275E-2,-3.497203439E-2
2.580545982E0,-1.786780916E-2,-1.404990070E-2,-3.619376570E-2
2.582782615E0,-1.404990070E-2,-9.315694682E-3,-3.375030309E-2
2.585021750E0,-1.404990070E-2,-5.650503561E-3,-3.115412779E-2
2.587255515E0,-1.511891466E-2,2.901609987E-3,-2.993239649E-2
2.589492759E0,-1.618792862E-2,6.566801574E-3,-2.748893574E-2
2.591728111E0,-1.618792862E-2,1.023199316E-2,-2.382374369E-2
2.593964744E0,-1.725694351E-2,1.618792862E-2,-2.138028294E-2
2.596200828E0,-1.847867295E-2,1.740965992E-2,-2.015855350E-2
2.598437644E0,-1.863138936E-2,1.389718428E-2,-1.771509275E-2
2.600673911E0,-1.985312067E-2,1.511891466E-2,-1.404990070E-2
2.602911643E0,-2.229658142E-2,1.756237634E-2,-1.282817032E-2
2.605149558E0,-2.474004216E-2,1.634064503E-2,-1.038470957E-2
2.607372642E0,-2.351831272E-2,1.634064503E-2,-1.038470957E-2
2.609619529E0,-2.351831272E-2,2.122756653E-2,-6.719517522E-3
2.611855002E0,-2.596177347E-2,2.122756653E-2,-5.497787148E-3
2.614096213E0,-2.718350291E-2,2.367102914E-2,-3.054326167E-3
2.616328696E0,-2.840523422E-2,2.367102914E-2,-1.832595794E-3
2.618565025E0,-2.718350291E-2,2.367102914E-2,-1.832595794E-3
2.620801353E0,-2.855795063E-2,1.771509275E-2,-6.108652451E-4
2.623038535E0,-2.718350291E-2,2.000583708E-2,-6.108652451E-4
2.625275779E0,-2.474004216E-2,1.878410578E-2,1.832595794E-3
2.627510947E0,-2.855795063E-2,1.282817032E-2,6.108652451E-4
2.629747581E0,-2.611448988E-2,1.038470957E-2,-3.054326167E-3
2.631983177E0,-2.626720630E-2,5.497787148E-3,-5.650503561E-3
2.634220115E0,-2.871066704E-2,1.832595794E-3,-8.093964309E-3
2.636456565E0,-2.764165215E-2,-4.123340361E-3,-8.093964309E-3
2.638693015E0,-2.275473066E-2,-9.162978269E-3,-1.053742506E-2
2.640929526E0,-1.924225502E-2,-1.527163107E-2,-1.175915636E-2
2.643166587E0,-2.046398632E-2,-1.649336144E-2,-1.298088674E-2
2.645402183E0,-1.924225502E-2,-1.771509275E-2,-1.664607786E-2
2.647635520E0,-1.435533352E-2,-2.138028294E-2,-1.908953860E-2
2.649862693E0,-1.191187184E-2,-2.397646010E-2,-2.153299935E-2
2.652111350E0,-9.621127509E-3,-2.886338346E-2,-2.519819140E-2
2.654347556E0,-1.084285788E-2,-3.115412779E-2,-2.641992271E-2
2.656587303E0,-8.399397135E-3,-3.375030309E-2,-3.130684420E-2
2.658820701E0,-3.512475174E-3,-3.741549700E-2,-3.130684420E-2
2.661058311E0,-1.069014193E-3,-3.741549700E-2,-3.252857551E-2
2.663293601E0,2.596177394E-3,-3.878994286E-2,-3.481931984E-2
2.665530173E0,3.970623948E-3,-3.512475267E-2,-3.848451003E-2
2.667765829E0,6.261368748E-3,-4.001167417E-2,-3.970624134E-2
2.670002219E0,1.007927675E-2,-3.649919853E-2,-4.092797264E-2
2.672235740E0,1.511891466E-2,-3.298672289E-2,-4.337143153E-2
2.674463218E0,1.511891466E-2,-2.809980139E-2,-4.321871698E-2
2.676712180E0,1.771509275E-2,-2.443460934E-2,-4.566217586E-2
2.678949668E0,2.138028294E-2,-2.336559631E-2,-4.444044828E-2
2.681188011E0,2.153299935E-2,-1.847867295E-2,-4.077525437E-2
2.683421531E0,2.657263726E-2,-1.618792862E-2,-4.444044828E-2
2.685658286E0,2.916881628E-2,-7.788531948E-3,-4.428773001E-2
2.687894065E0,2.932153270E-2,3.207042580E-3,-4.306599870E-2
2.690130271E0,2.809980139E-2,3.207042580E-3,-4.306599870E-2
2.692366783E0,2.825251780E-2,9.315694682E-3,-4.184427112E-2
2.694603355E0,3.084869497E-2,1.649336144E-2,-4.046982154E-2
2.696840659E0,3.329215571E-2,2.015855350E-2,-3.802636266E-2
2.699075706E0,3.222314268E-2,2.626720630E-2,-3.802636266E-2
2.701312400E0,3.237585723E-2,3.100141138E-2,-3.558290005E-2
2.703548667E0,2.871066704E-2,3.481931984E-2,-3.436116874E-2
2.705785300E0,2.871066704E-2,3.726277873E-2,-3.191770986E-2
2.708021568E0,2.886338346E-2,4.199698567E-2,-2.947424725E-2
2.710257896E0,2.641992271E-2,4.337143153E-2,-2.703078650E-2
2.712494773E0,2.764165215E-2,4.321871698E-2,-2.580905706E-2
2.714732078E0,2.764165215E-2,4.566217586E-2,-2.336559631E-2
2.716967490E0,2.397646010E-2,4.581489414E-2,-2.214386500E-2
2.719204002E0,2.397646010E-2,4.703662544E-2,-1.725694351E-2
2.721440025E0,2.138028294E-2,4.459316283E-2,-1.603521220E-2
2.723676597E0,2.015855350E-2,4.337143153E-2,-1.359175146E-2
2.725909995E0,1.771509275E-2,4.352414981E-2,-9.926560335E-3
2.728134848E0,1.511891466E-2,4.230241850E-2,-9.926560335E-3
2.730374412E0,1.634064503E-2,4.108068720E-2,-7.483099122E-3
2.732623374E0,1.496619824E-2,3.741549700E-2,-5.039638374E-3
2.734861351E0,1.252273750E-2,3.390302137E-2,-5.192354787E-3
2.737096885E0,1.237002108E-2,3.268129006E-2,-2.748893574E-3
2.739327292E0,1.114829071E-2,3.145955876E-2,-2.748893574E-3
2.741566306E0,1.496619824E-2,3.145955876E-2,-3.970623948E-3
2.743804404E0,1.359175146E-2,3.145955876E-2,-2.748893574E-3
2.746041709E0,1.114829071E-2,2.901609987E-2,-1.527163084E-3
2.748277610E0,1.114829071E-2,2.779436857E-2,-2.748893574E-3
2.750514487E0,9.926560335E-3,3.023782931E-2,-2.748893574E-3
2.752749839E0,8.704829961E-3,2.901609987E-2,-5.192354787E-3
2.754986716E0,2.443460980E-3,2.672535367E-2,-6.414085161E-3
2.757220481E0,-1.221730490E-3,2.443460934E-2,-5.345070735E-3
2.759447105E0,-4.886921961E-3,2.321287990E-2,-9.010262787E-3
2.761695457E0,-6.261368748E-3,2.092213556E-2,-1.267545391E-2
2.763931968E0,-7.330383174E-3,2.214386500E-2,-1.145372353E-2
2.766171653E0,-1.237002108E-2,2.107485011E-2,-1.511891466E-2
2.768406089E0,-1.618792862E-2,1.252273750E-2,-1.527163107E-2
2.770640952E0,-1.740965992E-2,1.023199316E-2,-1.649336144E-2
2.772877647E0,-2.122756653E-2,1.023199316E-2,-1.649336144E-2
2.775113364E0,-2.122756653E-2,9.010262787E-3,-1.771509275E-2
2.777351707E0,-2.611448988E-2,6.719517522E-3,-2.031126991E-2
2.779586753E0,-2.489275858E-2,4.276056774E-3,-1.786780916E-2
2.781823508E0,-2.993239649E-2,-1.679879380E-3,-1.908953860E-2
2.784059714E0,-2.993239649E-2,-4.581489484E-4,-1.664607786E-2
2.786298300E0,-3.497203439E-2,-4.581489484E-4,-1.664607786E-2
2.788535728E0,-3.497203439E-2,-4.581489484E-4,-1.420261711E-2
2.790768882E0,-3.252857551E-2,-1.679879380E-3,-1.420261711E-2
2.793004905E0,-3.252857551E-2,-4.581489484E-4,-1.420261711E-2
2.795240988E0,-3.237585723E-2,7.635815418E-4,-1.298088674E-2
2.797478172E0,-3.130684420E-2,-4.581489484E-4,-1.298088674E-2
2.799711753E0,-3.130684420E-2,-4.581489484E-4,-1.175915636E-2
2.801939353E0,-2.504547499E-2,4.276056774E-3,-6.872233935E-3
2.804184226E0,-2.122756653E-2,6.566801574E-3,-6.719517522E-3
2.806406272E0,-1.878410578E-2,7.788531948E-3,-4.276056774E-3
2.808662986E0,-1.756237634E-2,1.023199316E-2,-4.276056774E-3
2.810896324E0,-9.010262787E-3,8.857546374E-3,-4.123340361E-3
2.813137534E0,-5.345070735E-3,7.483099122E-3,-1.679879380E-3
2.815369529E0,-2.748893574E-3,8.704829961E-3,-1.679879380E-3
2.817602500E0,2.138028387E-3,1.099557430E-2,1.985311974E-3
2.819826255E0,3.359758761E-3,8.552113548E-3,7.635815418E-4
2.822067954E0,9.468411095E-3,7.177666761E-3,9.162978968E-4
2.824315025E0,1.802052557E-2,3.359758761E-3,-3.054326226E-4
2.826554954E0,2.290744707E-2,2.138028387E-3,3.359758761E-3
2.828791648E0,2.535090782E-2,9.162978968E-4,-3.054326226E-4
2.831024558E0,2.886338346E-2,-4.123340361E-3,-3.054326226E-4
2.833260886E0,3.252857551E-2,-4.123340361E-3,2.290744567E-3
2.835496909E0,3.619376570E-2,-5.497787148E-3,2.290744567E-3
2.837730735E0,3.863722831E-2,-5.497787148E-3,3.512475174E-3
2.839959068E0,4.123340547E-2,-5.497787148E-3,4.734205548E-3
2.842206382E0,4.612032697E-2,-6.872233935E-3,5.955935922E-3
2.844442710E0,4.596760869E-2,-8.093964309E-3,5.955935922E-3
2.846681845E0,4.856378585E-2,-8.093964309E-3,5.955935922E-3
2.848915855E0,4.963280261E-2,-9.315694682E-3,5.955935922E-3
2.851152000E0,5.329799280E-2,-1.069014147E-2,6.108652335E-3
2.853388572E0,5.207626149E-2,-1.175915636E-2,7.330383174E-3
2.855625144E0,5.207626149E-2,-1.053742506E-2,4.886921961E-3
2.857863486E0,5.467243865E-2,-8.246680722E-3,7.330383174E-3
2.860100913E0,5.345070735E-2,-7.024950348E-3,4.886921961E-3
2.862334068E0,5.100724846E-2,-9.315694682E-3,4.886921961E-3
2.864570091E0,4.718934000E-2,-9.315694682E-3,5.955935922E-3
2.866806113E0,4.856378585E-2,-4.428773187E-3,7.330383174E-3
2.869043113E0,4.245513305E-2,-6.719517522E-3,2.290744567E-3
2.871279379E0,4.245513305E-2,-4.276056774E-3,2.290744567E-3
2.873514304E0,4.123340547E-2,-3.054326167E-3,1.069014193E-3
2.875753806E0,3.772092983E-2,1.832595794E-3,1.069014193E-3
2.877988853E0,3.527746722E-2,5.497787148E-3,-1.527163113E-4
2.880225974E0,3.283400834E-2,5.497787148E-3,-1.527163113E-4
2.882461509E0,3.054326214E-2,1.282817032E-2,-1.374446787E-3
2.884698325E0,2.687807009E-2,1.542434748E-2,-1.374446787E-3
2.886934470E0,2.321287990E-2,2.031126991E-2,1.069014193E-3
2.889171226E0,2.092213556E-2,2.641992271E-2,2.290744567E-3
2.891407615E0,1.725694351E-2,2.535090782E-2,2.290744567E-3
2.893645164E0,1.237002108E-2,3.023782931E-2,3.359758761E-3
2.895880210E0,7.483099122E-3,3.390302137E-2,4.581489135E-3
2.898117148E0,3.970623948E-3,4.016438872E-2,3.359758761E-3
2.900354148E0,-3.512475174E-3,3.787364438E-2,3.359758761E-3
2.902589927E0,-8.399397135E-3,3.665191308E-2,4.428773187E-3
2.904825767E0,-1.328631863E-2,3.924809024E-2,5.650503561E-3
2.907062034E0,-1.572977938E-2,4.046982154E-2,6.872233935E-3
2.909295859E0,-2.076941915E-2,3.940080851E-2,9.315694682E-3
2.911524314E0,-2.809980139E-2,4.199698567E-2,7.941247895E-3
2.913771568E0,-3.176499158E-2,3.833179548E-2,7.941247895E-3
2.916007957E0,-3.817907721E-2,3.359758854E-2,1.282817032E-2
2.918247275E0,-4.306599870E-2,2.886338346E-2,1.145372353E-2
2.920481040E0,-4.932736978E-2,2.535090782E-2,1.267545391E-2
2.922717185E0,-5.070181563E-2,2.290744707E-2,1.389718428E-2
2.924953696E0,-5.574145541E-2,1.817324013E-2,1.374446787E-2
2.927190269E0,-5.818491429E-2,1.588249579E-2,1.252273750E-2
2.929427634E0,-6.078109145E-2,9.773843922E-3,1.618792862E-2
2.931662986E0,-6.337726861E-2,6.261368748E-3,1.618792862E-2
2.933899497E0,-6.459899992E-2,2.596177394E-3,1.237002108E-2
2.936135276E0,-6.719517708E-2,1.527163113E-4,1.481348183E-2
2.938372153E0,-6.841690838E-2,-4.581489135E-3,1.725694351E-2
2.940609458E0,-7.101308554E-2,-9.468411095E-3,1.603521220E-2
2.942845115E0,-6.856962293E-2,-1.191187184E-2,1.725694351E-2
2.945081748E0,-6.612616032E-2,-1.435533352E-2,1.603521220E-2
2.947318687E0,-6.505715102E-2,-1.679879427E-2,1.603521220E-2
2.949554038E0,-6.368270516E-2,-1.435533352E-2,1.725694351E-2
2.951790611E0,-5.742133409E-2,-9.621127509E-3,1.740965992E-2
2.954026695E0,-5.513058975E-2,-1.328631863E-2,1.740965992E-2
2.956260581E0,-5.390885845E-2,-1.588249579E-2,1.618792862E-2
2.958487876E0,-4.764748737E-2,-1.221730467E-2,1.863138936E-2
2.960736228E0,-4.153883830E-2,-1.481348183E-2,1.740965992E-2
2.962973105E0,-4.031710699E-2,-8.857546374E-3,1.756237634E-2
2.965213584E0,-3.527746722E-2,-8.857546374E-3,1.878410578E-2
2.967445701E0,-3.161227703E-2,-6.566801574E-3,1.878410578E-2
2.969682212E0,-2.657263726E-2,-4.276056774E-3,1.878410578E-2
2.971918968E0,-2.535090782E-2,-5.497787148E-3,2.000583708E-2
2.974153220E0,-2.168571576E-2,-5.497787148E-3,2.015855350E-2
2.976384544E0,-1.679879427E-2,-1.985311974E-3,2.015855350E-2
2.978624167E0,-1.420261711E-2,-7.635815418E-4,2.260201424E-2
2.980849692E0,-1.298088674E-2,3.054326226E-4,2.382374369E-2
2.983091392E0,-1.420261711E-2,2.901609987E-3,2.382374369E-2
2.985334128E0,-1.420261711E-2,4.581489484E-4,2.504547499E-2
2.987561301E0,-1.420261711E-2,4.581489484E-4,2.626720630E-2
2.989800376E0,-1.679879427E-2,-1.985311974E-3,2.382374369E-2
2.992045921E0,-1.924225502E-2,-5.497787148E-3,2.626720630E-2
2.994285301E0,-2.076941915E-2,-1.771509275E-2,2.611448988E-2
2.996521933E0,-2.214386500E-2,-2.367102914E-2,2.733621933E-2
2.998752829E0,-2.718350291E-2,-2.962696366E-2,2.367102914E-2
3.000981162E0,-3.115412779E-2,-4.046982154E-2,2.596177347E-2
3.003225486E0,-3.619376570E-2,-4.535674304E-2,2.718350291E-2
3.005452964E0,-4.001167417E-2,-5.619960278E-2,2.947424725E-2
3.007700706E0,-4.260785133E-2,-6.093380973E-2,3.069597855E-2
3.009925315E0,-4.505131021E-2,-5.849034712E-2,3.436116874E-2
3.012176596E0,-4.993823543E-2,-5.955936015E-2,3.436116874E-2
3.014410239E0,-4.886921868E-2,-6.078109145E-2,3.436116874E-2
3.016649925E0,-4.993823543E-2,-5.711590126E-2,3.558290005E-2
3.018884422E0,-4.993823543E-2,-5.711590126E-2,3.680463135E-2
3.021119468E0,-5.482515693E-2,-5.467243865E-2,3.436116874E-2
3.023355796E0,-5.238169432E-2,-5.589416996E-2,3.436116874E-2
3.025591880E0,-5.238169432E-2,-5.222897977E-2,3.313944116E-2
3.027829002E0,-5.222897977E-2,-4.978551716E-2,3.069597855E-2
3.030065330E0,-5.085453019E-2,-4.260785133E-2,2.947424725E-2
3.032301597E0,-4.703662544E-2,-4.016438872E-2,2.825251780E-2
3.034537864E0,-4.596760869E-2,-4.260785133E-2,2.580905706E-2
3.036775169E0,-4.459316283E-2,-3.665191308E-2,2.474004216E-2
3.039010642E0,-4.459316283E-2,-3.787364438E-2,2.229658142E-2
3.041246421E0,-4.199698567E-2,-3.298672289E-2,1.985312067E-2
3.043476096E0,-4.184427112E-2,-2.825251780E-2,1.863138936E-2
3.045707908E0,-3.817907721E-2,-2.947424725E-2,1.496619824E-2
3.047956260E0,-3.680463135E-2,-2.214386500E-2,1.496619824E-2
3.050193564E0,-3.924809024E-2,-2.092213556E-2,1.374446787E-2
3.052432578E0,-3.802636266E-2,-1.970040426E-2,1.374446787E-2
3.054666648E0,-3.665191308E-2,-1.863138936E-2,1.007927675E-2
3.056902305E0,-3.665191308E-2,-1.496619824E-2,7.788531948E-3
3.059138511E0,-3.543018550E-2,-1.496619824E-2,9.010262787E-3
3.061374595E0,-3.543018550E-2,-1.496619824E-2,9.010262787E-3
3.063611167E0,-3.161227703E-2,-1.374446787E-2,6.566801574E-3
3.065847800E0,-3.161227703E-2,-1.023199316E-2,6.566801574E-3
3.068084312E0,-3.527746722E-2,-7.635815535E-3,6.566801574E-3
3.070317771E0,-3.390302137E-2,-5.345070735E-3,5.345070735E-3
3.072546226E0,-3.145955876E-2,-1.679879380E-3,5.345070735E-3
3.074793235E0,-3.008511290E-2,7.635815418E-4,5.345070735E-3
3.077029624E0,-3.008511290E-2,1.985311974E-3,5.345070735E-3
3.079268698E0,-3.008511290E-2,1.985311974E-3,4.123340361E-3
3.081502830E0,-3.008511290E-2,4.428773187E-3,6.566801574E-3
3.083739158E0,-2.748893574E-2,1.282817032E-2,5.497787148E-3
3.085975486E0,-2.733621933E-2,1.649336144E-2,4.276056774E-3
3.088211936E0,-2.611448988E-2,1.878410578E-2,3.054326167E-3
3.090449058E0,-2.229658142E-2,2.367102914E-2,5.497787148E-3
3.092684714E0,-1.970040426E-2,2.596177347E-2,4.276056774E-3
3.094921226E0,-2.092213556E-2,3.207042441E-2,6.872233935E-3
3.097157188E0,-2.076941915E-2,3.573561832E-2,6.872233935E-3
3.099394187E0,-1.572977938E-2,3.924809024E-2,6.872233935E-3
3.101630515E0,-1.450804994E-2,4.535674304E-2,6.872233935E-3
3.103867027E0,-1.313360315E-2,4.642575979E-2,8.093964309E-3
3.106103049E0,-1.206458826E-2,4.642575979E-2,1.069014147E-2
3.108338034E0,-8.246680722E-3,5.253441259E-2,1.069014147E-2
3.110566428E0,-3.207042580E-3,5.360342562E-2,8.246680722E-3
3.112812644E0,-1.985311974E-3,5.360342562E-2,9.468411095E-3
3.115049400E0,-1.832595794E-3,5.849034712E-2,7.024950348E-3
3.117287375E0,6.108652451E-4,5.833763257E-2,9.621127509E-3
3.119521629E0,2.901609987E-3,5.467243865E-2,9.621127509E-3
3.121757957E0,5.345070735E-3,5.100724846E-2,9.621127509E-3
3.123994834E0,5.345070735E-3,4.856378585E-2,1.206458826E-2
3.126232017E0,3.970623948E-3,4.489859566E-2,1.191187184E-2
3.128467063E0,2.748893574E-3,4.260785133E-2,1.313360315E-2
3.130703452E0,1.374446787E-3,3.894266114E-2,1.313360315E-2
3.132936790E0,2.443460980E-3,3.283400834E-2,1.679879427E-2
3.135164634E0,4.886921961E-3,3.039054573E-2,1.679879427E-2
3.137412742E0,1.069014193E-3,2.687807009E-2,1.435533352E-2
3.139648581E0,-2.901609987E-3,1.359175146E-2,1.542434748E-2
3.141886131E0,-4.276056774E-3,6.261368748E-3,1.664607786E-2
3.144123191E0,-6.872233935E-3,3.054326226E-4,1.664607786E-2
3.146358543E0,-1.053742506E-2,-4.581489135E-3,1.771509275E-2
3.148595786E0,-1.313360315E-2,-9.315694682E-3,1.771509275E-2
3.150831199E0,-1.328631863E-2,-1.298088674E-2,2.015855350E-2
3.153064963E0,-1.588249579E-2,-1.893682219E-2,2.015855350E-2
3.155292136E0,-1.954768784E-2,-2.260201424E-2,2.000583708E-2
3.157537437E0,-2.351831272E-2,-2.855795063E-2,2.244929783E-2
3.159760520E0,-2.840523422E-2,-2.840523422E-2,2.244929783E-2
3.162005516E0,-2.718350291E-2,-2.962696366E-2,2.244929783E-2
3.164249595E0,-2.962696366E-2,-3.207042441E-2,2.244929783E-2
3.166489829E0,-3.222314268E-2,-3.680463135E-2,2.596177347E-2
3.168725241E0,-3.466660157E-2,-3.436116874E-2,2.351831272E-2
3.170959129E0,-3.344487399E-2,-3.436116874E-2,2.474004216E-2
3.173195396E0,-3.344487399E-2,-3.191770986E-2,2.351831272E-2
3.175432029E0,-3.222314268E-2,-3.451388702E-2,2.229658142E-2
3.177665610E0,-3.100141138E-2,-3.329215571E-2,2.229658142E-2
3.179890952E0,-2.855795063E-2,-3.451388702E-2,2.367102914E-2
3.182129295E0,-2.840523422E-2,-2.962696366E-2,1.878410578E-2
3.184378074E0,-2.703078650E-2,-2.840523422E-2,1.634064503E-2
3.186617819E0,-2.336559631E-2,-2.855795063E-2,1.756237634E-2
3.188853476E0,-2.336559631E-2,-2.489275858E-2,1.389718428E-2
3.191087058E0,-1.954768784E-2,-2.260201424E-2,1.389718428E-2
3.193323264E0,-1.710422710E-2,-2.260201424E-2,1.023199316E-2
3.195559775E0,-1.328631863E-2,-2.138028294E-2,7.941247895E-3
3.197794455E0,-1.328631863E-2,-2.031126991E-2,5.497787148E-3
3.200020530E0,-9.468411095E-3,-1.664607786E-2,4.276056774E-3
3.202265708E0,-8.246680722E-3,-1.191187184E-2,1.832595794E-3
3.204491905E0,-8.093964309E-3,-9.468411095E-3,6.108652451E-4
3.206744529E0,-3.207042580E-3,-8.246680722E-3,-6.108652451E-4
3.208978172E0,-3.054326167E-3,-5.803219974E-3,-3.054326167E-3
3.211217918E0,-5.497787148E-3,-3.359758761E-3,-3.054326167E-3
3.213451072E0,-5.497787148E-3,-9.162978968E-4,-4.276056774E-3
3.215688316E0,-5.345070735E-3,3.817907767E-3,-6.566801574E-3
3.217923667E0,-7.635815535E-3,9.926560335E-3,-6.566801574E-3
3.220160300E0,-7.635815535E-3,1.603521220E-2,-4.123340361E-3
3.222393394E0,-1.114829071E-2,2.092213556E-2,-5.345070735E-3
3.224618308E0,-1.237002108E-2,2.458732575E-2,-2.901609987E-3
3.226854819E0,-1.221730467E-2,3.436116874E-2,-1.679879380E-3
3.229094138E0,-1.588249579E-2,3.558290005E-2,-4.581489484E-4
3.231345664E0,-1.695151068E-2,4.291328415E-2,-4.581489484E-4
3.233582847E0,-1.802052557E-2,5.146539584E-2,4.428773187E-3
3.235818016E0,-2.153299935E-2,5.635231733E-2,4.428773187E-3
3.238051658E0,-2.764165215E-2,6.017022580E-2,9.315694682E-3
3.240284995E0,-3.130684420E-2,6.139195710E-2,9.315694682E-3
3.242512839E0,-3.512475267E-2,6.398813426E-2,1.542434748E-2
3.244760825E0,-4.123340547E-2,6.032294407E-2,1.649336144E-2
3.246997092E0,-4.612032697E-2,6.169738993E-2,1.649336144E-2
3.249236717E0,-5.115996301E-2,5.940664560E-2,2.138028294E-2
3.251472618E0,-5.375614017E-2,5.696318299E-2,2.504547499E-2
3.253711814E0,-5.619960278E-2,5.345070735E-2,2.489275858E-2
3.255943259E0,-6.139195710E-2,4.505131021E-2,2.855795063E-2
3.258179954E0,-6.276640296E-2,4.016438872E-2,3.100141138E-2
3.260414268E0,-6.414084882E-2,3.543018550E-2,3.711006418E-2
3.262651939E0,-6.536258012E-2,3.298672289E-2,3.695734590E-2
3.264888206E0,-6.688974798E-2,2.443460934E-2,4.062253982E-2
3.267124961E0,-6.566801667E-2,1.832595654E-2,4.306599870E-2
3.269361289E0,-6.582073122E-2,1.481348183E-2,4.428773001E-2
3.271592063E0,-6.841690838E-2,9.926560335E-3,4.428773001E-2
3.273833884E0,-6.841690838E-2,6.261368748E-3,4.428773001E-2
3.276070091E0,-6.612616032E-2,1.527163113E-4,4.795292020E-2
3.278308433E0,-6.246097013E-2,-1.069014193E-3,4.795292020E-2
3.280543601E0,-6.246097013E-2,-3.512475174E-3,4.795292020E-2
3.282779685E0,-6.017022580E-2,-1.084285788E-2,4.550946131E-2
3.285016562E0,-6.032294407E-2,-1.572977938E-2,4.428773001E-2
3.287253989E0,-6.032294407E-2,-1.817324013E-2,4.169155285E-2
3.289489158E0,-5.787948146E-2,-1.939497143E-2,4.062253982E-2
3.291725425E0,-5.406157300E-2,-1.939497143E-2,3.451388702E-2
3.293961509E0,-5.421429127E-2,-2.428189293E-2,3.329215571E-2
3.296198630E0,-5.314527452E-2,-3.039054573E-2,2.947424725E-2
3.298434959E0,-4.948008433E-2,-3.649919853E-2,2.580905706E-2
3.300671287E0,-4.963280261E-2,-4.382958263E-2,2.336559631E-2
3.302907798E0,-4.474587739E-2,-4.749477282E-2,1.847867295E-2
3.305145042E0,-4.489859566E-2,-5.360342562E-2,1.847867295E-2
3.307377219E0,-4.474587739E-2,-5.360342562E-2,1.359175146E-2
3.309604819E0,-4.001167417E-2,-5.849034712E-2,1.114829071E-2
3.311852867E0,-3.512475267E-2,-6.108652428E-2,7.483099122E-3
3.314089744E0,-3.252857551E-2,-5.986479297E-2,3.817907767E-3
3.316329063E0,-2.519819140E-2,-6.001751125E-2,3.970623948E-3
3.318562583E0,-1.893682219E-2,-6.017022580E-2,3.054326226E-4
3.320798972E0,-1.160643995E-2,-5.787948146E-2,-7.635815418E-4
3.323036399E0,-2.901609987E-3,-5.436700583E-2,-4.428773187E-3
3.325271323E0,5.803219974E-3,-5.222897977E-2,-4.276056774E-3
3.327508445E0,1.206458826E-2,-4.993823543E-2,-5.497787148E-3
3.329745200E0,2.321287990E-2,-4.642575979E-2,-5.345070735E-3
3.331981101E0,3.436116874E-2,-4.428773001E-2,-7.788531948E-3
3.334217124E0,4.291328415E-2,-4.199698567E-2,-7.635815535E-3
3.336450461E0,5.299255997E-2,-3.604105115E-2,-8.704829961E-3
3.338678245E0,6.291911751E-2,-2.779436857E-2,-8.552113548E-3
3.340927390E0,7.422012836E-2,-2.076941915E-2,-9.773843922E-3
3.343162986E0,8.536841720E-2,-1.252273750E-2,-8.399397135E-3
3.345402487E0,9.804387391E-2,-6.108652451E-4,-1.069014147E-2
3.347632346E0,1.091921628E-1,6.414085161E-3,-1.175915636E-2
3.349859946E0,1.218676195E-1,2.199114859E-2,-1.160643995E-2
3.352108543E0,1.330159009E-1,3.023782931E-2,-7.788531948E-3
3.354345359E0,1.455386430E-1,3.970624134E-2,-5.192354787E-3
3.356584739E0,1.519527286E-1,4.932736978E-2,-3.817907767E-3
3.358818992E0,1.582140923E-1,6.017022580E-2,1.069014193E-3
3.361054221E0,1.646281779E-1,6.856962293E-2,2.443460980E-3
3.363290611E0,1.684460938E-1,8.063421398E-2,2.443460980E-3
3.365526695E0,1.750128865E-1,9.498954564E-2,1.374446787E-3
3.367760520E0,1.751656085E-1,1.059851199E-1,5.039638374E-3
3.369987937E0,1.753183305E-1,1.168279797E-1,5.192354787E-3
3.372236289E0,1.766927689E-1,1.241583601E-1,5.192354787E-3
3.374469260E0,1.719585657E-1,1.302670091E-1,6.414085161E-3
3.376701072E0,1.682933718E-1,1.290452778E-1,6.414085161E-3
3.378945396E0,1.620320082E-1,1.279762685E-1,7.483099122E-3
3.381182212E0,1.583668143E-1,1.281289905E-1,7.483099122E-3
3.383421347E0,1.484402567E-1,1.233947799E-1,7.330383174E-3
3.385654929E0,1.385136992E-1,1.175915599E-1,6.108652335E-3
3.387891196E0,1.259909570E-1,1.117883399E-1,7.177666761E-3
3.390127586E0,1.111774743E-1,1.072068512E-1,1.069014147E-2
3.392364646E0,9.621127695E-2,1.014036313E-1,1.298088674E-2
3.394601646E0,8.246681094E-2,9.071348608E-2,1.282817032E-2
3.396836814E0,6.627888232E-2,8.017606288E-2,1.511891466E-2
3.399073569E0,5.253441259E-2,7.437284291E-2,1.985312067E-2
3.401310691E0,3.878994286E-2,6.734789163E-2,2.336559631E-2
3.403543540E0,2.138028294E-2,5.910121277E-2,2.321287990E-2
3.405770591E0,6.414085161E-3,4.856378585E-2,2.306016348E-2
3.408018577E0,-1.221730467E-2,4.169155285E-2,2.657263726E-2
3.410255454E0,-3.084869497E-2,3.466660157E-2,2.504547499E-2
3.412495994E0,-4.703662544E-2,2.046398632E-2,2.244929783E-2
3.414728111E0,-6.200282276E-2,1.466076635E-2,2.351831272E-2
3.416964439E0,-8.185594529E-2,4.123340361E-3,2.336559631E-2
3.419200523E0,-1.006400511E-1,-8.857546374E-3,2.428189293E-2
3.421437644E0,-1.204931661E-1,-1.695151068E-2,2.290744707E-2
3.423673972E0,-1.391245574E-1,-2.871066704E-2,2.153299935E-2
3.425910300E0,-1.615738571E-1,-4.276056588E-2,2.000583708E-2
3.428146812E0,-1.779145002E-1,-5.833763257E-2,2.107485011E-2
3.430384116E0,-2.003637999E-1,-7.238753140E-2,1.954768784E-2
3.432619529E0,-2.215913683E-1,-8.414668590E-2,1.924225502E-2
3.434856040E0,-2.426662147E-1,-9.712757170E-2,1.786780916E-2
3.437091941E0,-2.626720667E-1,-1.076650023E-1,1.649336144E-2
3.439327415E0,-2.837468982E-1,-1.204931661E-1,1.130100712E-2
3.441558921E0,-2.999348342E-1,-1.299615800E-1,1.237002108E-2
3.443801658E0,-3.223841190E-1,-1.415680200E-1,9.621127509E-3
3.446038169E0,-3.385720551E-1,-1.522581577E-1,7.024950348E-3
3.448277000E0,-3.523165286E-1,-1.617265791E-1,5.650503561E-3
3.450510642E0,-3.646865487E-1,-1.687515229E-1,-1.832595794E-3
3.452747459E0,-3.808744848E-1,-1.756237596E-1,-7.635815418E-4
3.454983482E0,-3.894265890E-1,-1.779145002E-1,-3.359758761E-3
3.457220115E0,-3.944662213E-1,-1.838704348E-1,-4.581489135E-3
3.459456382E0,-4.019493461E-1,-1.861611903E-1,-1.206458826E-2
3.461692954E0,-4.056145251E-1,-1.886046380E-1,-1.450804994E-2
3.463929587E0,-4.068362415E-1,-1.861611903E-1,-1.939497143E-2
3.466166831E0,-4.079052806E-1,-1.835650057E-1,-2.183843218E-2
3.468399925E0,-4.053090811E-1,-1.776090711E-1,-2.428189293E-2
3.470630759E0,-4.002694488E-1,-1.728748679E-1,-2.535090782E-2
3.472875816E0,-3.952298164E-1,-1.644754708E-1,-3.145955876E-2
3.475111533E0,-3.851505518E-1,-1.537853181E-1,-3.375030309E-2
3.477347129E0,-3.750712574E-1,-1.453859210E-1,-3.726277873E-2
3.479569358E0,-3.674354553E-1,-1.334740520E-1,-4.092797264E-2
3.481806052E0,-3.596469164E-1,-1.201877370E-1,-4.566217586E-2
3.484046409E0,-3.484986126E-1,-1.131627858E-1,-5.039638281E-2
3.486296286E0,-3.359758854E-1,-1.036943719E-1,-5.390885845E-2
3.488533041E0,-3.281873465E-1,-9.178250283E-2,-5.864306539E-2
3.490768576E0,-3.181080818E-1,-8.109235764E-2,-6.352998316E-2
3.493002586E0,-3.057380617E-1,-7.880161703E-2,-7.070764899E-2
3.495239097E0,-2.958115041E-1,-7.422012836E-2,-7.422012836E-2
3.497475730E0,-2.834414840E-1,-7.559457421E-2,-7.910704613E-2
3.499709067E0,-2.759583890E-1,-6.963863969E-2,-8.384125680E-2
3.501937339E0,-2.661845386E-1,-7.360926270E-2,-8.750644326E-2
3.504184653E0,-2.536617815E-1,-7.009678334E-2,-9.224065393E-2
3.506418296E0,-2.426662147E-1,-7.162395120E-2,-9.590584040E-2
3.508645347E0,-2.327396572E-1,-7.299839705E-2,-1.006400511E-1
3.510881980E0,-2.266310006E-1,-7.437284291E-2,-1.030835137E-1
3.513130454E0,-2.142609805E-1,-7.452555746E-2,-1.053742543E-1
3.515369773E0,-2.069306076E-1,-7.712173462E-2,-1.090394482E-1
3.517605674E0,-1.982257664E-1,-7.483099401E-2,-1.088867337E-1
3.519834739E0,-1.896736622E-1,-7.498370856E-2,-1.101084575E-1
3.522064048E0,-1.811215430E-1,-7.757988572E-2,-1.111774743E-1
3.524312339E0,-1.774563491E-1,-8.017606288E-2,-1.160643995E-1
3.526549155E0,-1.724167168E-1,-7.651086897E-2,-1.172861308E-1
3.528788230E0,-1.675297916E-1,-7.544185966E-2,-1.172861308E-1
3.531021629E0,-1.612684280E-1,-7.315111160E-2,-1.171334088E-1
3.533258201E0,-1.588249654E-1,-7.315111160E-2,-1.207986027E-1
3.535491782E0,-1.550070494E-1,-6.841690838E-2,-1.232420653E-1
3.537717124E0,-1.499674171E-1,-6.490442902E-2,-1.244637966E-1
3.539955405E0,-1.485929638E-1,-6.123924255E-2,-1.267545372E-1
3.542204001E0,-1.449277848E-1,-6.017022580E-2,-1.267545372E-1
3.544443991E0,-1.412625909E-1,-5.772676691E-2,-1.279762685E-1
3.546679588E0,-1.411098689E-1,-5.299255997E-2,-1.279762685E-1
3.548912986E0,-1.372919679E-1,-4.566217586E-2,-1.314887404E-1
3.551149192E0,-1.359175146E-1,-3.970624134E-2,-1.314887404E-1
3.553385886E0,-1.345430762E-1,-3.481931984E-2,-1.314887404E-1
3.555623374E0,-1.331686229E-1,-2.886338346E-2,-1.314887404E-1
3.557855552E0,-1.342376322E-1,-2.275473066E-2,-1.327104717E-1
3.560080405E0,-1.304197311E-1,-1.557706390E-2,-1.325577646E-1
3.562313864E0,-1.291979998E-1,-1.069014147E-2,-1.313360333E-1
3.564547323E0,-1.302670091E-1,-8.246680722E-3,-1.325577646E-1
3.566790854E0,-1.288925707E-1,3.054326226E-4,-1.325577646E-1
3.569028526E0,-1.252273768E-1,3.817907767E-3,-1.287398487E-1
3.571274131E0,-1.262963861E-1,1.114829071E-2,-1.287398487E-1
3.573500633E0,-1.237002090E-1,1.710422710E-2,-1.262963861E-1
3.575735679E0,-1.261436790E-1,1.954768784E-2,-1.226311997E-1
3.577989402E0,-1.273654103E-1,2.076941915E-2,-1.226311997E-1
3.580225791E0,-1.284344196E-1,2.443460934E-2,-1.201877370E-1
3.582463767E0,-1.284344196E-1,2.687807009E-2,-1.165225431E-1
3.584694663E0,-1.284344196E-1,2.809980139E-2,-1.153008118E-1
3.586931907E0,-1.333213449E-1,2.947424725E-2,-1.153008118E-1
3.589168540E0,-1.357648075E-1,2.947424725E-2,-1.153008118E-1
3.591405845E0,-1.345430762E-1,2.947424725E-2,-1.153008118E-1
3.593641013E0,-1.382082552E-1,3.313944116E-2,-1.140790880E-1
3.595877769E0,-1.394299865E-1,3.207042441E-2,-1.140790880E-1
3.598113670E0,-1.443169117E-1,3.451388702E-2,-1.128573567E-1
3.600348350E0,-1.527163088E-1,4.444044828E-2,-1.142318025E-1
3.602574180E0,-1.576032341E-1,5.299255997E-2,-1.105666086E-1
3.604811179E0,-1.574505121E-1,5.543602258E-2,-1.081231460E-1
3.607059897E0,-1.562287807E-1,5.665775016E-2,-1.067487001E-1
3.609299643E0,-1.562287807E-1,5.894849449E-2,-1.067487001E-1
3.611535667E0,-1.586722434E-1,6.032294407E-2,-1.043052375E-1
3.613769431E0,-1.574505121E-1,6.154467165E-2,-1.018617824E-1
3.616006187E0,-1.536326110E-1,6.505715102E-2,-9.941831976E-2
3.618241843E0,-1.487456858E-1,6.856962293E-2,-9.575312585E-2
3.620478355E0,-1.424843222E-1,7.208210230E-2,-8.827003092E-2
3.622714500E0,-1.375973970E-1,7.192938030E-2,-8.338310570E-2
3.624951560E0,-1.302670091E-1,7.192938030E-2,-7.834346592E-2
3.627188560E0,-1.229366288E-1,7.299839705E-2,-7.223481685E-2
3.629423972E0,-1.192714423E-1,7.528914511E-2,-6.612616032E-2
3.631660423E0,-1.069014147E-1,7.498370856E-2,-5.986479297E-2
3.633896324E0,-1.020144969E-1,7.498370856E-2,-5.360342562E-2
3.636133079E0,-9.590584040E-2,7.727445662E-2,-4.627304152E-2
3.638369163E0,-9.346238524E-2,7.727445662E-2,-4.260785133E-2
3.640605796E0,-8.735372871E-2,7.712173462E-2,-3.756821156E-2
3.642842429E0,-8.124507964E-2,7.574728876E-2,-3.268129006E-2
3.645079978E0,-8.017606288E-2,7.086037099E-2,-2.779436857E-2
3.647315086E0,-7.406741381E-2,7.192938030E-2,-2.412917651E-2
3.649551658E0,-6.551529467E-2,6.811147183E-2,-1.908953860E-2
3.651787681E0,-6.200282276E-2,6.322455406E-2,-1.542434748E-2
3.654024558E0,-5.971207842E-2,5.345070735E-2,-1.175915636E-2
3.656260886E0,-5.375614017E-2,4.367686436E-2,-8.093964309E-3
3.658497459E0,-4.917465150E-2,2.901609987E-2,-5.650503561E-3
3.660734031E0,-4.566217586E-2,1.924225502E-2,-3.207042580E-3
3.662971275E0,-3.985895589E-2,5.803219974E-3,-1.985311974E-3
3.665206382E0,-3.145955876E-2,-1.023199316E-2,-3.207042580E-3
3.667439047E0,-2.321287990E-2,-2.733621933E-2,-3.207042580E-3
3.669660361E0,-1.618792862E-2,-4.444044828E-2,-7.635815418E-4
3.671903709E0,-4.123340361E-3,-5.558873713E-2,-4.428773187E-3
3.674152183E0,6.719517522E-3,-6.673702598E-2,-6.872233935E-3
3.676392417E0,2.138028294E-2,-7.681630552E-2,-1.038470957E-2
3.678628196E0,3.970624134E-2,-7.956519723E-2,-9.010262787E-3
3.680862693E0,5.940664560E-2,-8.597928286E-2,-1.252273750E-2
3.683098045E0,8.017606288E-2,-9.239336848E-2,-1.481348183E-2
3.685334617E0,9.865473956E-2,-9.529497474E-2,-1.710422710E-2
3.687568320E0,1.206458881E-1,-1.017090604E-1,-1.817324013E-2
3.689795005E0,1.401935667E-1,-1.105666086E-1,-1.924225502E-2
3.692043601E0,1.595885456E-1,-1.206458881E-1,-1.802052557E-2
3.694279868E0,1.768454909E-1,-1.258382350E-1,-1.908953860E-2
3.696519553E0,1.939497143E-1,-1.275181174E-1,-1.893682219E-2
3.698753989E0,2.061670274E-1,-1.313360333E-1,-1.634064503E-2
3.700989036E0,2.147191316E-1,-1.339322031E-1,-1.267545391E-2
3.703225486E0,2.208277881E-1,-1.388191283E-1,-1.267545391E-2
3.705459494E0,2.231185287E-1,-1.414152980E-1,-1.023199316E-2
3.707686606E0,2.231185287E-1,-1.485929638E-1,-1.389718428E-2
3.709922996E0,2.229658216E-1,-1.559233516E-1,-1.634064503E-2
3.712171226E0,2.228130996E-1,-1.620320082E-1,-2.489275858E-2
3.714410056E0,2.214386463E-1,-1.716531366E-1,-3.115412779E-2
3.716648093E0,2.189951837E-1,-1.777617931E-1,-3.970624134E-2
3.718880454E0,2.189951837E-1,-1.812742651E-1,-4.825835302E-2
3.721116843E0,2.139555514E-1,-1.849394590E-1,-5.451972410E-2
3.723350303E0,2.127338201E-1,-1.847867370E-1,-6.062837690E-2
3.725575522E0,2.054034323E-1,-1.858557463E-1,-6.673702598E-2
3.727814292E0,1.992947906E-1,-1.858557463E-1,-6.933320314E-2
3.730062339E0,1.994474977E-1,-1.809688359E-1,-7.422012836E-2
3.732302024E0,1.983784884E-1,-1.760819107E-1,-7.788532227E-2
3.734540549E0,2.021963894E-1,-1.701259762E-1,-8.261952549E-2
3.736776267E0,2.047925740E-1,-1.640173197E-1,-8.872817457E-2
3.739008201E0,2.098322064E-1,-1.568396538E-1,-9.117163718E-2
3.741244468E0,2.150245607E-1,-1.496619880E-1,-9.468411654E-2
3.743479941E0,2.261728644E-1,-1.426370293E-1,-9.941831976E-2
3.745717429E0,2.386955917E-1,-1.356120855E-1,-1.004873365E-1
3.747953880E0,2.524400651E-1,-1.249219403E-1,-9.666942805E-2
3.750190330E0,2.663372457E-1,-1.082758680E-1,-9.651670605E-2
3.752427818E0,2.875648141E-1,-8.796459436E-2,-9.498954564E-2
3.754662925E0,3.065016270E-1,-6.658431143E-2,-9.239336848E-2
3.756899802E0,3.268128932E-1,-4.016438872E-2,-9.086620808E-2
3.759136558E0,3.457497358E-1,-1.634064503E-2,-9.056077152E-2
3.761372520E0,3.671300113E-1,8.704829961E-3,-9.147707373E-2
3.763609031E0,3.860668242E-1,3.390302137E-2,-9.254608303E-2
3.765845115E0,4.063780904E-1,5.772676691E-2,-9.590584040E-2
3.768081809E0,4.214970171E-1,7.315111160E-2,-9.941831976E-2
3.770318626E0,4.402811229E-1,8.735372871E-2,-1.015563458E-1
3.772551291E0,4.515821338E-1,1.017090604E-1,-1.014036313E-1
3.774778892E0,4.667010605E-1,1.185078546E-1,-1.012509167E-1
3.777027061E0,4.755585790E-1,1.316414624E-1,-1.023199260E-1
3.779263816E0,4.868595898E-1,1.411098689E-1,-1.021672115E-1
3.781503073E0,4.932736754E-1,1.543961912E-1,-1.021672115E-1
3.783736411E0,5.009095073E-1,1.650863290E-1,-9.834930301E-2
3.785973044E0,5.097670555E-1,1.769981980E-1,-9.819658846E-2
3.788210532E0,5.148066878E-1,1.853975952E-1,-9.804387391E-2
3.790445701E0,5.198463202E-1,1.950187236E-1,-9.560041130E-2
3.792682273E0,5.262604356E-1,2.009746730E-1,-9.911288321E-2
3.794918235E0,5.288565755E-1,2.070833147E-1,-9.911288321E-2
3.797154868E0,5.349652171E-1,2.069306076E-1,-1.015563458E-1
3.799391196E0,5.412266254E-1,2.104430795E-1,-1.001819000E-1
3.801624900E0,5.473352671E-1,2.115120888E-1,-1.026253626E-1
3.803852927E0,5.464189649E-1,2.212859392E-1,-1.075122803E-1
3.806101707E0,5.477933884E-1,2.284636050E-1,-1.099557430E-1
3.808336997E0,5.444336534E-1,2.467895597E-1,-1.134682223E-1
3.810576193E0,5.424483418E-1,2.674062550E-1,-1.159116775E-1
3.812809470E0,5.367978215E-1,2.893974185E-1,-1.220203340E-1
3.815046470E0,5.322163701E-1,3.089450896E-1,-1.256855279E-1
3.817282615E0,5.216789246E-1,3.321579695E-1,-1.342376322E-1
3.819519187E0,5.086980462E-1,3.567453027E-1,-1.415680200E-1
3.821755698E0,4.958698750E-1,3.872885704E-1,-1.525636017E-1
3.823993064E0,4.818199575E-1,4.178318381E-1,-1.647808999E-1
3.826228416E0,4.653266072E-1,4.497495294E-1,-1.757764816E-1
3.828465232E0,4.488332272E-1,4.816672504E-1,-1.843285859E-1
3.830701988E0,4.285219610E-1,5.123631954E-1,-1.918116808E-1
3.832934592E0,4.069889784E-1,5.383250117E-1,-1.966986060E-1
3.835161948E0,3.840815127E-1,5.655084848E-1,-1.992947906E-1
3.837408714E0,3.585779071E-1,5.841398835E-1,-2.018909603E-1
3.839638022E0,3.306308091E-1,5.992587805E-1,-2.044871449E-1
3.841872703E0,3.051272035E-1,6.155994534E-1,-2.034181207E-1
3.844108665E0,2.831360400E-1,6.269004345E-1,-2.035708427E-1
3.846357322E0,2.587014437E-1,6.322455406E-1,-1.988366395E-1
3.848595053E0,2.353358418E-1,6.363688707E-1,-1.879937798E-1
3.850831442E0,2.167044431E-1,6.378960609E-1,-1.795943826E-1
3.853062339E0,2.017382532E-1,6.320928335E-1,-1.638645977E-1
3.855289695E0,1.878410578E-1,6.214026809E-1,-1.432479024E-1
3.857535483E0,1.737911552E-1,6.023131609E-1,-1.214094684E-1
3.859760581E0,1.620320082E-1,5.783366561E-1,-9.957103431E-2
3.862002159E0,1.539380401E-1,5.505422950E-1,-6.918048859E-2
3.864247398E0,1.336267740E-1,5.326744914E-1,-3.390302137E-2
3.866485923E0,1.171334088E-1,5.196936131E-1,1.527163113E-4
3.868717796E0,1.041525230E-1,5.016731024E-1,3.176499158E-2
3.870944419E0,9.224065393E-2,4.703662395E-1,6.459899992E-2
3.873192954E0,8.368854225E-2,4.184426963E-1,9.498954564E-2
3.875430197E0,8.109235764E-2,3.625485301E-1,1.154535338E-1
3.877667197E0,8.827003092E-2,3.005456924E-1,1.434006095E-1
3.879890525E0,9.819658846E-2,2.506074607E-1,1.727221459E-1
3.882138755E0,1.072068512E-1,2.212859392E-1,2.057088763E-1
3.884374595E0,1.201877370E-1,2.064724565E-1,2.350303978E-1
3.886614584E0,1.284344196E-1,1.965458989E-1,2.632829249E-1
3.888847739E0,1.379028261E-1,1.867720485E-1,2.939788997E-1
3.891084373E0,1.511891484E-1,1.828014255E-1,3.220787048E-1
3.893320884E0,1.594358236E-1,1.777617931E-1,3.576616049E-1
3.895558250E0,1.763873398E-1,1.798998117E-1,3.982841372E-1
3.897790671E0,1.823432744E-1,1.846340150E-1,4.534147382E-1
3.900018699E0,2.018909603E-1,1.999056488E-1,5.148066878E-1
3.902267234E0,2.200642079E-1,2.093740702E-1,5.847507715E-1
3.904503013E0,2.379320115E-1,1.980730593E-1,6.411030889E-1
3.906738914E0,2.455678284E-1,1.638645977E-1,6.814202070E-1
3.908962974E0,2.521346211E-1,1.298088580E-1,7.070765495E-1
3.911212241E0,2.637410760E-1,1.004873365E-1,7.229590416E-1
3.913449607E0,2.770273983E-1,9.285151958E-2,7.363980412E-1
3.915688011E0,2.840523422E-1,7.819075137E-2,7.412849665E-1
3.917921287E0,2.921462953E-1,5.253441259E-2,7.388415337E-1
3.920157554E0,2.926044464E-1,1.496619824E-2,7.338019013E-1
3.922394126E0,2.904664278E-1,-2.871066704E-2,7.312057018E-1
3.924630515E0,2.822197378E-1,-7.590000331E-2,7.272350788E-1
3.926866966E0,2.701551616E-1,-1.278235465E-1,7.208209634E-1
3.929103416E0,2.493857294E-1,-1.783726513E-1,7.191411257E-1
3.931340964E0,2.298380435E-1,-2.386955917E-1,7.090618610E-1
3.933574912E0,2.029599845E-1,-2.939788997E-1,6.988298297E-1
3.935807334E0,1.748601794E-1,-3.455969989E-1,6.873761415E-1
3.938048911E0,1.528690308E-1,-4.010330439E-1,6.710354686E-1
3.940285484E0,1.247692257E-1,-4.538728893E-1,6.595817208E-1
3.942523216E0,9.926560521E-2,-5.042692423E-1,6.420193911E-1
3.944758323E0,6.887505949E-2,-5.510004759E-1,6.256787181E-1
3.946994773E0,4.337143153E-2,-5.991060734E-1,6.081163287E-1
3.949232261E0,1.679879427E-2,-6.423248053E-1,5.905539989E-1
3.951467429E0,-8.552113548E-3,-6.806566119E-1,5.778785348E-1
3.953704246E0,-2.626720630E-2,-7.142542005E-1,5.641340613E-1
3.955939964E0,-4.764748737E-2,-7.417431474E-1,5.516113043E-1
3.958176719E0,-6.643159688E-2,-7.547240257E-1,5.441282392E-1
3.960413352E0,-8.124507964E-2,-7.556403279E-1,5.415320396E-1
3.962649497E0,-9.712757170E-2,-7.516697049E-1,5.413793325E-1
3.964886130E0,-1.139263660E-1,-7.319692969E-1,5.426010489E-1
3.967123313E0,-1.282816976E-1,-7.098253965E-1,5.436700583E-1
3.969358787E0,-1.362229437E-1,-6.768386960E-1,5.450445414E-1
3.971592673E0,-1.438587606E-1,-6.281222105E-1,5.451972485E-1
3.973817649E0,-1.459967941E-1,-5.552765131E-1,5.430592299E-1
3.976053122E0,-1.453859210E-1,-4.619668424E-1,5.384777188E-1
3.978289939E0,-1.343903542E-1,-3.468187451E-1,5.317581892E-1
3.980532126E0,-1.157589629E-1,-2.185370475E-1,5.274821520E-1
3.982780784E0,-8.842274547E-2,-8.674286306E-2,5.233588219E-1
3.985017905E0,-5.009094998E-2,3.985895589E-2,5.204572082E-1
3.987253012E0,2.901609987E-3,1.663080603E-1,5.166392922E-1
3.989486594E0,6.811147183E-2,2.838996351E-1,5.138903856E-1
3.991722434E0,1.443169117E-1,3.952298164E-1,5.090034604E-1
3.993959312E0,2.365575731E-1,5.051855445E-1,4.992296100E-1
3.996195640E0,3.323107064E-1,6.136141419E-1,4.882340431E-1
3.998432273E0,4.367686510E-1,7.195992470E-1,4.821254015E-1
4.000665793E0,5.433646441E-1,8.182539940E-1,4.737260044E-1
4.002893882E0,6.598871946E-1,9.094256163E-1,4.602869749E-1
4.005141257E0,7.759515643E-1,9.836457372E-1,4.470006526E-1
4.007378013E0,8.930850029E-1,1.048092008E0,4.323398769E-1
4.009614036E0,1.016327024E0,1.105207920E0,4.115704596E-1
4.011839316E0,1.137889266E0,1.143997908E0,3.871358633E-1
4.014087241E0,1.260520458E0,1.169501543E0,3.576616049E-1
4.016323630E0,1.379028320E0,1.173319459E0,3.243694305E-1
4.018563072E0,1.499674201E0,1.158811331E0,2.849686444E-1
4.020797446E0,1.617418408E0,1.120174170E0,2.356412709E-1
4.023032859E0,1.728290439E0,1.052520871E0,1.861611903E-1
4.025269370E0,1.830304980E0,9.570731521E-1,1.279762685E-1
4.027505210E0,1.925752640E0,8.495608568E-1,6.459899992E-2
4.029742027E0,2.005317926E0,7.472409010E-1,1.527163113E-4
4.031978355E0,2.072818518E0,6.488916278E-1,-6.093380973E-2
4.034214988E0,2.128254414E0,5.677992702E-1,-1.281289905E-1
4.036451621E0,2.170251608E0,4.964807332E-1,-1.892155111E-1
4.038684775E0,2.205223560E0,4.399756789E-1,-2.441933751E-1
4.040906760E0,2.224160433E0,3.874412775E-1,-2.981022298E-1
4.043160544E0,2.231032610E0,3.460551500E-1,-3.422372639E-1
4.045397727E0,2.228131056E0,3.145956099E-1,-3.765984178E-1
4.047634727E0,2.224160433E0,2.831360400E-1,-4.098905921E-1
4.049857810E0,2.208888769E0,2.530509233E-1,-4.382958114E-1
4.052105796E0,2.192548037E0,2.280054539E-1,-4.616613984E-1
4.054342978E0,2.172542334E0,2.064724565E-1,-4.766276181E-1
4.056583396E0,2.146427870E0,1.912008226E-1,-4.867068827E-1
4.058815330E0,2.115273714E0,1.724167168E-1,-4.883867502E-1
4.061051841E0,2.083050489E0,1.597412676E-1,-4.862487316E-1
4.063287864E0,2.048078537E0,1.434006095E-1,-4.731151462E-1
4.065524802E0,2.004707098E0,1.320996135E-1,-4.587597847E-1
4.067758139E0,1.961182833E0,1.171334088E-1,-4.408919811E-1
4.069985679E0,1.918880463E0,1.033889428E-1,-4.181372523E-1
4.072234031E0,1.871538401E0,8.246681094E-2,-3.966042697E-1
4.074471519E0,1.825265408E0,6.032294407E-2,-3.688098788E-1
4.076709555E0,1.774105430E0,3.344487399E-2,-3.462078869E-1
4.078943015E0,1.729054093E0,2.748893574E-3,-3.258966208E-1
4.081179222E0,1.683850050E0,-3.512475267E-2,-3.031418920E-1
4.083415916E0,1.638493299E0,-7.192938030E-2,-2.767219543E-1
4.085652549E0,1.592067599E0,-1.085812971E-1,-2.480112910E-1
4.087888999E0,1.547932506E0,-1.466076523E-1,-2.179261744E-1
4.090125449E0,1.507462740E0,-1.870774776E-1,-1.817324162E-1
4.092362815E0,1.465771198E0,-2.275473028E-1,-1.467603743E-1
4.094597678E0,1.427744746E0,-2.680171132E-1,-1.093448773E-1
4.096834312E0,1.388496757E0,-3.084869385E-1,-7.192938030E-2
4.099070396E0,1.353066564E0,-3.466660380E-1,-3.436116874E-2
4.101307578E0,1.313971162E0,-3.811798990E-1,3.054326167E-3
4.103541892E0,1.282206178E0,-4.181372523E-1,3.573561832E-2
4.105772361E0,1.252884626E0,-4.540255964E-1,6.704246253E-2
4.108016685E0,1.228602767E0,-4.911356568E-1,9.483683109E-2
4.110253989E0,1.203099132E0,-5.221370459E-1,1.226311997E-1
4.112491355E0,1.180344343E0,-5.484042764E-1,1.469130963E-1
4.114726218E0,1.158658624E0,-5.722280145E-1,1.710422635E-1
4.116962974E0,1.140943527E0,-5.876523852E-1,1.953241676E-1
4.119198630E0,1.123228431E0,-6.020076871E-1,2.208277881E-1
4.121435142E0,1.107040524E0,-6.088799238E-1,2.426662147E-1
4.123671287E0,1.092074394E0,-6.073527932E-1,2.632829249E-1
4.125908347E0,1.078482628E0,-6.059783101E-1,2.828305960E-1
4.128145286E0,1.067334294E0,-6.032294035E-1,2.987131178E-1
4.130380515E0,1.057560444E0,-5.946773291E-1,3.095559776E-1
4.132614219E0,1.047786593E0,-5.871942043E-1,3.132211566E-1
4.134838950E0,1.040609002E0,-5.772676468E-1,3.144428730E-1
4.137081199E0,1.034653068E0,-5.723807216E-1,3.144428730E-1
4.139326255E0,1.033431292E0,-5.699372888E-1,3.119994104E-1
4.141565878E0,1.034958482E0,-5.601634383E-1,3.046690524E-1
4.143801657E0,1.040150762E0,-5.505422950E-1,2.948952019E-1
4.146036765E0,1.045343161E0,-5.396994352E-1,2.852740586E-1
4.148272056E0,1.051757216E0,-5.302310586E-1,2.767219543E-1
4.150508445E0,1.054506183E0,-5.157229900E-1,2.756529450E-1
4.152744712E0,1.057407737E0,-4.914411008E-1,2.855795026E-1
4.154981284E0,1.062752843E0,-4.660901725E-1,3.016147017E-1
4.157217673E0,1.064432740E0,-4.369213581E-1,3.127630055E-1
4.159454185E0,1.065959811E0,-4.211915731E-1,3.275764883E-1
4.161690818E0,1.062447429E0,-4.077525437E-1,3.349068761E-1
4.163928062E0,1.062294602E0,-4.126394689E-1,3.385720551E-1
4.166163169E0,1.058323979E0,-4.259257913E-1,3.396410644E-1
4.168399741E0,1.059087634E0,-4.489859641E-1,3.347541690E-1
4.170637167E0,1.058629513E0,-4.732678533E-1,3.297145069E-1
4.172878074E0,1.059393048E0,-4.999932051E-1,3.197879493E-1
4.175108970E0,1.060309291E0,-5.218316317E-1,3.098613918E-1
4.177345298E0,1.063669086E0,-5.426010489E-1,2.964223623E-1
4.179580588E0,1.063516378E0,-5.571091175E-1,2.828305960E-1
4.181819419E0,1.063363671E0,-5.667302608E-1,2.742784917E-1
4.184054527E0,1.066723466E0,-5.813909769E-1,2.657263875E-1
4.186291160E0,1.076344609E0,-5.974262357E-1,2.657263875E-1
4.188525229E0,1.090547204E0,-6.159048676E-1,2.755002379E-1
4.190749411E0,1.103986263E0,-6.258314252E-1,2.793181241E-1
4.192985801E0,1.117425203E0,-6.249151230E-1,2.831360400E-1
4.195222068E0,1.134529471E0,-6.301075220E-1,2.831360400E-1
4.197461814E0,1.161254883E0,-6.536257863E-1,2.857322097E-1
4.199700034E0,1.193783402E0,-6.858489513E-1,2.871066630E-1
4.201938010E0,1.223868489E0,-7.180721164E-1,2.933680415E-1
4.204170493E0,1.254259109E0,-7.319692969E-1,3.034473062E-1
4.206406638E0,1.291063666E0,-7.302893996E-1,3.257438838E-1
4.208641989E0,1.321912408E0,-7.247915864E-1,3.419318199E-1
4.210880027E0,1.350317597E0,-7.119634151E-1,3.495676219E-1
4.213116233E0,1.382540822E0,-7.029531598E-1,3.584251702E-1
4.215352805E0,1.410640597E0,-7.095199823E-1,3.746131063E-1
4.217593589E0,1.435991526E0,-7.330383062E-1,3.820962012E-1
4.219839194E0,1.455997348E0,-7.735081315E-1,3.833179474E-1
4.222061973E0,1.472185254E0,-8.272642493E-1,3.782783151E-1
4.224298301E0,1.489442229E0,-8.881980777E-1,3.707951903E-1
4.226533103E0,1.503033876E0,-9.491318464E-1,3.608686328E-1
4.228777121E0,1.518000126E0,-1.007774949E0,3.486513495E-1
4.231011130E0,1.536936998E0,-1.051757216E0,3.289509416E-1
4.233244468E0,1.558011770E0,-1.053437114E0,3.010038435E-1
4.235480552E0,1.585806131E0,-1.029613376E0,2.646573782E-1
4.237715964E0,1.621083617E0,-1.006095052E0,2.319760770E-1
4.239952781E0,1.660789847E0,-9.935722947E-1,2.078468949E-1
4.242188743E0,1.707826495E0,-9.908234477E-1,1.887573600E-1
4.244426170E0,1.764331579E0,-1.000444531E0,1.745547503E-1
4.246662803E0,1.826792479E0,-1.018617749E0,1.652390510E-1
4.248899131E0,1.891696930E0,-1.039234519E0,1.510364264E-1
4.251138328E0,1.965611696E0,-1.043205142E0,1.429424733E-1
4.253387473E0,2.039831877E0,-1.032514930E0,1.290452778E-1
4.255622641E0,2.115579128E0,-1.006095052E0,1.113301888E-1
4.257861045E0,2.193922520E0,-9.747881889E-1,9.132435173E-2
4.260099449E0,2.274862289E0,-9.350819588E-1,6.780604273E-2
4.262329246E0,2.364506721E0,-8.932377100E-1,4.550946131E-2
4.264565574E0,2.449264288E0,-8.498662710E-1,2.061670274E-2
4.266800376E0,2.535396099E0,-8.042041063E-1,-4.123340361E-3
4.269038657E0,2.621528149E0,-7.501425147E-1,-3.130684420E-2
4.271275718E0,2.709187269E0,-6.875288486E-1,-5.726861581E-2
4.273511069E0,2.793486834E0,-6.065891981E-1,-8.185594529E-2
4.275747642E0,2.868317842E0,-5.097670555E-1,-1.065959856E-1
4.277983787E0,2.928488016E0,-3.981314301E-1,-1.238529310E-1
4.280220664E0,2.975371838E0,-2.739730477E-1,-1.365283877E-1
4.282457175E0,3.005304337E0,-1.411098689E-1,-1.492038369E-1
4.284693443E0,3.028822660E0,-1.664607786E-2,-1.582140923E-1
4.286929771E0,3.052035570E0,9.697485715E-2,-1.637118906E-1
4.289167075E0,3.072652102E0,1.973094791E-1,-1.704314053E-1
4.291402671E0,3.100446463E0,2.890919745E-1,-1.759291887E-1
4.293639060E0,3.136487484E0,3.636175394E-1,-1.814269722E-1
4.295875144E0,3.180775404E0,4.222606122E-1,-1.869247705E-1
4.298111900E0,3.229797363E0,4.746423066E-1,-1.899790913E-1
4.300348228E0,3.280193567E0,5.270239711E-1,-1.954768747E-1
4.302584556E0,3.327841043E0,5.710062981E-1,-1.973094791E-1
4.304818137E0,3.379153728E0,6.125451326E-1,-1.954768747E-1
4.307046470E0,3.431688309E0,6.502660513E-1,-1.924225539E-1
4.309293845E0,3.480252028E0,6.832527518E-1,-1.882992089E-1
4.311530357E0,3.533855438E0,7.174612284E-1,-1.803579628E-1
4.313769187E0,3.578753948E0,7.457137704E-1,-1.724167168E-1
4.316003074E0,3.620903730E0,7.655668855E-1,-1.609629989E-1
4.318239585E0,3.654195786E0,7.745771408E-1,-1.496619880E-1
4.320475974E0,3.678630590E0,7.728972435E-1,-1.299615800E-1
4.322712607E0,3.693138599E0,7.640396953E-1,-1.053742543E-1
4.324949973E0,3.716198683E0,7.564038634E-1,-7.834346592E-2
4.327184959E0,3.739411592E0,7.571674585E-1,-4.505131021E-2
4.329422019E0,3.766442299E0,7.663304210E-1,-1.175915636E-2
4.331658775E0,3.797291040E0,7.863363028E-1,2.168571576E-2
4.333891684E0,3.825849056E0,8.075638413E-1,5.619960278E-2
4.336118675E0,3.851963520E0,8.326093554E-1,9.330966324E-2
4.338366783E0,3.870594978E0,8.564330935E-1,1.314887404E-1
4.340603782E0,3.885560989E0,8.804095387E-1,1.757764816E-1
4.342843954E0,3.894418716E0,9.057604671E-1,2.186897546E-1
4.345076621E0,3.895793200E0,9.288206100E-1,2.666426897E-1
4.347313071E0,3.880063295E0,9.556986690E-1,3.094032407E-1
4.349548972E0,3.866624355E0,9.778425694E-1,3.484986126E-1
4.351785728E0,3.849672794E0,9.987646937E-1,3.827070892E-1
4.354022056E0,3.832568645E0,1.016174316E0,4.071416855E-1
4.356258628E0,3.801872492E0,1.027628064E0,4.265366495E-1
4.358495017E0,3.779881477E0,1.035416603E0,4.398229718E-1
4.360732566E0,3.754072428E0,1.044426799E0,4.494441152E-1
4.362967918E0,3.728263378E0,1.048550248E0,4.515821338E-1
4.365204490E0,3.707493782E0,1.052520871E0,4.477642179E-1
4.367440269E0,3.684281111E0,1.057865858E0,4.402811229E-1
4.369674277E0,3.664733410E0,1.064279914E0,4.303545654E-1
4.371898521E0,3.646407366E0,1.067028880E0,4.155410826E-1
4.374135398E0,3.636633635E0,1.069777727E0,4.056145251E-1
4.376386619E0,3.627012491E0,1.074817419E0,3.946189582E-1
4.378626730E0,3.621056557E0,1.082147837E0,3.860668242E-1
4.380862876E0,3.619987488E0,1.088256478E0,3.799581826E-1
4.383095542E0,3.620140076E0,1.091921568E0,3.738495409E-1
4.385331626E0,3.619071245E0,1.099251986E0,3.689626157E-1
4.387565574E0,3.620598316E0,1.107651353E0,3.616322279E-1
4.389793296E0,3.619376659E0,1.111316562E0,3.604104817E-1
4.392041099E0,3.616933107E0,1.111316562E0,3.567453027E-1
4.394277671E0,3.609450102E0,1.107804179E0,3.565925956E-1
4.396517844E0,3.594483852E0,1.097266674E0,3.564398587E-1
4.398747336E0,3.577074051E0,1.084285855E0,3.514002264E-1
4.400974998E0,3.551112413E0,1.077413559E0,3.523165286E-1
4.403224021E0,3.514002323E0,1.075733662E0,3.581197560E-1
4.405459800E0,3.469561815E0,1.071763039E0,3.651446998E-1
4.407696006E0,3.417791128E0,1.067945123E0,3.769038618E-1
4.409920554E0,3.359453440E0,1.055727839E0,3.921754956E-1
4.412169333E0,3.295007229E0,1.039998055E0,4.086688459E-1
4.414406638E0,3.222924948E0,1.010982037E0,4.288274050E-1
4.416644676E0,3.147177696E0,9.870055318E-1,4.524984360E-1
4.418878257E0,3.060129404E0,9.535606503E-1,4.810563922E-1
4.421114341E0,2.959489346E0,9.214902520E-1,5.094616413E-1
4.423351157E0,2.844341278E0,8.982773423E-1,5.364924073E-1
4.425587302E0,2.714379787E0,8.729264140E-1,5.609270334E-1
4.427824058E0,2.581669331E0,8.330674767E-1,5.865833759E-1
4.430060447E0,2.441475630E0,7.823656797E-1,6.108652353E-1
4.432297996E0,2.292119026E0,7.173085213E-1,6.374378800E-1
4.434533042E0,2.139097452E0,6.438519955E-1,6.579018831E-1
4.436770651E0,1.982105017E0,5.595525503E-1,6.769914031E-1
4.439006309E0,1.825112581E0,4.728097022E-1,6.960809231E-1
4.441229331E0,1.664302349E0,3.788891733E-1,7.102835774E-1
4.443478599E0,1.508226275E0,2.787072659E-1,7.208209634E-1
