"Time (s)","Gyroscope x (rad/s)","Gyroscope y (rad/s)","Gyroscope z (rad/s)"
2.107069600E-2,-3.054326226E-4,-1.221730490E-3,3.054326226E-4
2.330712600E-2,-4.581489484E-4,-3.665191587E-3,1.374446787E-3
2.554595700E-2,2.138028387E-3,-1.374446787E-3,3.054326226E-4
2.778704600E-2,2.138028387E-3,-1.527163113E-4,3.054326226E-4
3.001495100E-2,-3.054326226E-4,0.000000000E0,-9.162978968E-4
3.225268200E-2,-1.527163084E-3,-1.221730490E-3,-2.290744567E-3
3.448541000E-2,9.162978968E-4,-1.527163113E-4,3.054326226E-4
3.672393600E-2,9.162978968E-4,-2.443460980E-3,3.054326226E-4
3.895947100E-2,2.138028387E-3,-3.817907767E-3,-9.162978968E-4
4.119622600E-2,-1.679879380E-3,-2.443460980E-3,1.527163113E-4
4.343530000E-2,-4.581489484E-4,-3.665191587E-3,1.527163113E-4
4.568359100E-2,7.635815418E-4,-6.108652335E-3,-1.069014193E-3
4.791998100E-2,-1.527163084E-3,-1.221730490E-3,1.374446787E-3
5.015728500E-2,-3.054326226E-4,-1.221730490E-3,1.527163084E-3
5.238647200E-2,3.359758761E-3,-2.596177394E-3,1.527163084E-3
5.461114200E-2,9.162978968E-4,-2.443460980E-3,1.527163084E-3
5.684698200E-2,9.162978968E-4,-1.527163113E-4,3.970623948E-3
5.908593500E-2,-3.054326226E-4,0.000000000E0,1.527163084E-3
6.133733800E-2,-4.581489484E-4,-2.443460980E-3,3.054326226E-4
6.357342200E-2,-3.054326226E-4,-1.221730490E-3,3.054326226E-4
6.581011700E-2,9.162978968E-4,1.069014193E-3,-9.162978968E-4
6.804394300E-2,9.162978968E-4,1.069014193E-3,-9.162978968E-4
7.027947800E-2,-1.679879380E-3,-3.665191587E-3,1.374446787E-3
7.251531800E-2,-4.581489484E-4,-2.443460980E-3,3.054326226E-4
7.475146300E-2,-3.054326226E-4,1.221730490E-3,-9.162978968E-4
7.698797400E-2,9.162978968E-4,-1.527163113E-4,-9.162978968E-4
7.922442400E-2,9.162978968E-4,-1.527163113E-4,-2.138028387E-3
8.146093500E-2,-2.748893574E-3,1.221730490E-3,-2.290744567E-3
8.369799600E-2,-1.527163084E-3,3.665191587E-3,-2.138028387E-3
8.593408000E-2,-3.054326226E-4,2.290744567E-3,3.054326226E-4
8.816637900E-2,-2.748893574E-3,0.000000000E0,-2.290744567E-3
9.039330700E-2,-3.054326226E-4,1.221730490E-3,3.054326226E-4
9.264062200E-2,-3.054326226E-4,2.290744567E-3,3.054326226E-4
9.487023600E-2,-2.748893574E-3,-1.221730490E-3,-1.069014193E-3
9.710137700E-2,3.359758761E-3,-1.527163113E-4,3.054326226E-4
9.935064500E-2,3.359758761E-3,1.069014193E-3,2.748893574E-3
1.015883760E-1,-3.054326226E-4,0.000000000E0,-1.069014193E-3
1.038281830E-1,-1.527163084E-3,1.221730490E-3,-1.069014193E-3
1.060593240E-1,-3.054326226E-4,1.221730490E-3,3.054326226E-4
1.082955300E-1,-1.527163084E-3,1.221730490E-3,1.527163113E-4
1.105315530E-1,-3.054326226E-4,1.221730490E-3,3.054326226E-4
1.127685520E-1,-1.527163084E-3,-1.221730490E-3,1.374446787E-3
1.150043920E-1,7.635815418E-4,-3.665191587E-3,2.748893574E-3
1.172407200E-1,2.138028387E-3,1.069014193E-3,3.054326226E-4
1.194769260E-1,3.512475174E-3,3.512475174E-3,3.054326226E-4
1.217124610E-1,2.138028387E-3,1.069014193E-3,-9.162978968E-4
1.239401830E-1,2.138028387E-3,-1.527163113E-4,-9.162978968E-4
1.261750460E-1,-1.527163084E-3,1.221730490E-3,-1.069014193E-3
1.284216290E-1,9.162978968E-4,2.290744567E-3,-9.162978968E-4
1.306597880E-1,2.138028387E-3,1.069014193E-3,1.527163084E-3
1.328968480E-1,9.162978968E-4,1.069014193E-3,1.527163084E-3
1.351303690E-1,-1.527163084E-3,1.221730490E-3,1.374446787E-3
1.373671850E-1,9.162978968E-4,1.069014193E-3,-9.162978968E-4
1.396042460E-1,-3.054326226E-4,3.512475174E-3,3.054326226E-4
1.418394140E-1,-3.054326226E-4,0.000000000E0,-1.069014193E-3
1.440756200E-1,2.138028387E-3,-1.527163113E-4,3.054326226E-4
1.463114590E-1,-3.054326226E-4,2.290744567E-3,-9.162978968E-4
1.485480930E-1,9.162978968E-4,-1.374446787E-3,3.054326226E-4
1.507844210E-1,-3.054326226E-4,-1.221730490E-3,-1.069014193E-3
1.530209940E-1,9.162978968E-4,-1.374446787E-3,3.054326226E-4
1.552580540E-1,-1.527163084E-3,-1.221730490E-3,1.527163113E-4
1.574941380E-1,-1.527163084E-3,-1.221730490E-3,1.527163113E-4
1.597254610E-1,-3.054326226E-4,-1.221730490E-3,1.527163084E-3
1.619494610E-1,-2.748893574E-3,-1.221730490E-3,-1.069014193E-3
1.642016580E-1,-1.527163084E-3,1.221730490E-3,3.054326226E-4
1.664381690E-1,9.162978968E-4,1.069014193E-3,-9.162978968E-4
1.686782810E-1,-3.054326226E-4,3.512475174E-3,-9.162978968E-4
1.709106420E-1,9.162978968E-4,-1.374446787E-3,-9.162978968E-4
1.731472140E-1,-3.054326226E-4,1.221730490E-3,2.748893574E-3
1.753842750E-1,2.138028387E-3,-1.527163113E-4,3.054326226E-4
1.776193820E-1,-2.748893574E-3,-1.221730490E-3,1.527163113E-4
1.798556500E-1,9.162978968E-4,-1.374446787E-3,-9.162978968E-4
1.820914900E-1,9.162978968E-4,-1.527163113E-4,3.054326226E-4
1.843280620E-1,3.359758761E-3,-1.527163113E-4,-9.162978968E-4
1.865641460E-1,3.359758761E-3,1.069014193E-3,-9.162978968E-4
1.887979100E-1,-2.901609987E-3,-1.221730490E-3,1.374446787E-3
1.910266090E-1,-3.054326226E-4,-1.221730490E-3,-9.162978968E-4
1.932742290E-1,9.162978968E-4,-2.443460980E-3,-9.162978968E-4
1.955095190E-1,-3.054326226E-4,-1.221730490E-3,-9.162978968E-4
1.977482270E-1,-3.054326226E-4,1.221730490E-3,-2.138028387E-3
1.999816860E-1,-3.054326226E-4,2.290744567E-3,3.054326226E-4
2.022181980E-1,9.162978968E-4,1.069014193E-3,-9.162978968E-4
2.044543430E-1,-1.527163084E-3,1.221730490E-3,3.054326226E-4
2.066907320E-1,9.162978968E-4,-1.527163113E-4,3.054326226E-4
2.089274880E-1,7.635815418E-4,-3.665191587E-3,3.054326226E-4
2.111642430E-1,7.635815418E-4,-3.665191587E-3,3.054326226E-4
2.133991680E-1,9.162978968E-4,-1.374446787E-3,-9.162978968E-4
2.156356180E-1,9.162978968E-4,-1.374446787E-3,2.748893574E-3
2.178715190E-1,9.162978968E-4,-1.374446787E-3,3.054326226E-4
2.201082130E-1,-3.054326226E-4,1.221730490E-3,3.054326226E-4
2.223444190E-1,-2.748893574E-3,0.000000000E0,1.527163113E-4
2.245808080E-1,-3.054326226E-4,2.290744567E-3,-9.162978968E-4
2.268168920E-1,-1.527163084E-3,1.221730490E-3,1.527163113E-4
2.290492530E-1,-3.054326226E-4,-1.221730490E-3,1.527163113E-4
2.312893040E-1,2.138028387E-3,-1.527163113E-4,3.054326226E-4
2.335253260E-1,2.138028387E-3,-1.374446787E-3,3.054326226E-4
2.357626920E-1,-3.054326226E-4,-1.221730490E-3,1.374446787E-3
2.379965800E-1,2.138028387E-3,-2.596177394E-3,3.054326226E-4
2.402275370E-1,-1.527163084E-3,0.000000000E0,1.527163113E-4
2.424707620E-1,9.162978968E-4,2.290744567E-3,3.054326226E-4
2.447072730E-1,-3.054326226E-4,1.221730490E-3,3.054326226E-4
2.469459820E-1,-2.748893574E-3,1.221730490E-3,-1.069014193E-3
2.491791970E-1,2.138028387E-3,1.069014193E-3,1.527163084E-3
2.514157080E-1,2.138028387E-3,2.290744567E-3,3.054326226E-4
2.536515470E-1,-1.527163084E-3,0.000000000E0,-1.069014193E-3
2.558881810E-1,-3.054326226E-4,0.000000000E0,-1.069014193E-3
2.581222510E-1,-4.581489484E-4,-3.665191587E-3,-1.069014193E-3
2.603527200E-1,-3.054326226E-4,0.000000000E0,-1.069014193E-3
2.625969820E-1,-3.054326226E-4,0.000000000E0,-1.069014193E-3
2.648345310E-1,-1.527163084E-3,-1.221730490E-3,-1.069014193E-3
2.670715310E-1,2.138028387E-3,-1.527163113E-4,1.527163084E-3
2.693057230E-1,9.162978968E-4,-1.527163113E-4,3.054326226E-4
2.715416850E-1,-1.527163084E-3,-1.221730490E-3,-1.069014193E-3
2.737782570E-1,-3.054326226E-4,0.000000000E0,-1.069014193E-3
2.760143410E-1,2.138028387E-3,2.290744567E-3,1.527163084E-3
2.782478000E-1,4.581489135E-3,-1.527163113E-4,-9.162978968E-4
2.804764990E-1,9.162978968E-4,-1.527163113E-4,-2.138028387E-3
2.827241190E-1,3.359758761E-3,-1.527163113E-4,3.054326226E-4
2.849594700E-1,3.359758761E-3,-1.527163113E-4,-9.162978968E-4
2.871981780E-1,-1.527163084E-3,2.443460980E-3,1.527163113E-4
2.894316990E-1,-1.527163084E-3,1.221730490E-3,1.527163113E-4
2.916683940E-1,9.162978968E-4,2.290744567E-3,3.054326226E-4
2.939042950E-1,9.162978968E-4,-1.374446787E-3,3.054326226E-4
2.961408670E-1,9.162978968E-4,2.290744567E-3,3.054326226E-4
2.983781100E-1,-3.054326226E-4,2.290744567E-3,-9.162978968E-4
3.006143160E-1,-1.527163084E-3,-1.221730490E-3,1.527163113E-4
3.028496680E-1,-3.054326226E-4,0.000000000E0,3.054326226E-4
3.050856300E-1,-1.527163084E-3,1.221730490E-3,3.054326226E-4
3.073215310E-1,-3.054326226E-4,-1.221730490E-3,1.527163084E-3
3.095558440E-1,3.359758761E-3,-2.596177394E-3,1.527163084E-3
3.117846050E-1,9.162978968E-4,-1.374446787E-3,3.054326226E-4
3.140307590E-1,-1.527163084E-3,0.000000000E0,1.527163113E-4
3.162670260E-1,-1.527163084E-3,3.665191587E-3,3.054326226E-4
3.185065890E-1,-1.527163084E-3,2.443460980E-3,3.054326226E-4
3.207394390E-1,-3.054326226E-4,-2.443460980E-3,-1.069014193E-3
3.229755840E-1,9.162978968E-4,-1.374446787E-3,3.054326226E-4
3.252116680E-1,-1.527163084E-3,2.443460980E-3,1.527163084E-3
3.274453710E-1,-2.748893574E-3,1.221730490E-3,1.527163113E-4
3.296730930E-1,-3.054326226E-4,0.000000000E0,1.527163084E-3
3.319206520E-1,9.162978968E-4,-1.374446787E-3,-9.162978968E-4
3.341572240E-1,3.359758761E-3,-1.374446787E-3,-2.138028387E-3
3.363971530E-1,2.138028387E-3,2.290744567E-3,-2.138028387E-3
3.386266450E-1,-1.527163084E-3,0.000000000E0,-1.069014193E-3
3.408541230E-1,-3.054326226E-4,0.000000000E0,-9.162978968E-4
3.431032070E-1,-1.527163084E-3,0.000000000E0,1.527163113E-4
3.453380710E-1,9.162978968E-4,-1.527163113E-4,3.054326226E-4
3.475744610E-1,-3.054326226E-4,0.000000000E0,-9.162978968E-4
3.497984600E-1,-2.748893574E-3,0.000000000E0,1.527163113E-4
3.520474220E-1,-2.748893574E-3,1.221730490E-3,-1.069014193E-3
3.542844210E-1,-3.054326226E-4,2.290744567E-3,-9.162978968E-4
3.565224580E-1,-1.527163084E-3,0.000000000E0,1.527163084E-3
3.587555520E-1,2.138028387E-3,1.069014193E-3,1.527163084E-3
3.609915750E-1,9.162978968E-4,-1.374446787E-3,-9.162978968E-4
3.632279640E-1,-1.527163084E-3,0.000000000E0,1.527163113E-4
3.654642920E-1,-1.679879380E-3,-3.665191587E-3,-1.069014193E-3
3.676901220E-1,-2.748893574E-3,-1.221730490E-3,-1.069014193E-3
3.699294410E-1,2.138028387E-3,-1.374446787E-3,1.527163084E-3
3.721627780E-1,2.138028387E-3,-1.527163113E-4,-9.162978968E-4
3.743975810E-1,-1.527163084E-3,-1.221730490E-3,-1.069014193E-3
3.766327490E-1,-1.527163084E-3,2.443460980E-3,-9.162978968E-4
3.788697490E-1,-1.527163084E-3,3.665191587E-3,-9.162978968E-4
3.811064430E-1,-2.748893574E-3,2.443460980E-3,1.527163113E-4
3.833428320E-1,-2.748893574E-3,-1.221730490E-3,-2.290744567E-3
3.855793430E-1,-3.054326226E-4,-1.221730490E-3,1.527163084E-3
3.878164040E-1,-1.527163084E-3,0.000000000E0,1.527163113E-4
3.900524880E-1,-3.054326226E-4,0.000000000E0,3.054326226E-4
3.922880830E-1,3.359758761E-3,-1.374446787E-3,-2.138028387E-3
3.945249610E-1,-4.581489484E-4,-2.443460980E-3,1.374446787E-3
3.967631810E-1,-3.054326226E-4,-1.221730490E-3,3.054326226E-4
3.990082980E-1,-1.527163084E-3,0.000000000E0,-2.290744567E-3
4.012355320E-1,-1.527163084E-3,-1.221730490E-3,-2.290744567E-3
4.034835790E-1,-3.054326226E-4,-2.443460980E-3,-1.069014193E-3
4.057172830E-1,-2.901609987E-3,-2.443460980E-3,1.374446787E-3
4.079572720E-1,-1.679879380E-3,-2.443460980E-3,1.527163113E-4
4.101897560E-1,-3.054326226E-4,-2.443460980E-3,-1.069014193E-3
4.124260230E-1,-3.054326226E-4,-2.443460980E-3,-1.069014193E-3
4.146618020E-1,-2.901609987E-3,-3.665191587E-3,1.374446787E-3
4.168981910E-1,-4.581489484E-4,-4.886921961E-3,1.527163113E-4
4.191347020E-1,2.138028387E-3,-1.374446787E-3,1.527163084E-3
4.213707860E-1,9.162978968E-4,-2.443460980E-3,-2.138028387E-3
4.236071750E-1,9.162978968E-4,-2.443460980E-3,-2.138028387E-3
4.258441750E-1,-4.581489484E-4,-6.108652335E-3,-1.069014193E-3
4.280798920E-1,-1.679879380E-3,-3.665191587E-3,-2.290744567E-3
4.303171360E-1,7.635815418E-4,-4.886921961E-3,-1.069014193E-3
4.325517560E-1,-4.581489484E-4,-2.443460980E-3,1.374446787E-3
4.347883280E-1,-1.679879380E-3,-3.665191587E-3,1.527163113E-4
4.370243510E-1,9.162978968E-4,-1.374446787E-3,3.054326226E-4
4.392612280E-1,9.162978968E-4,-1.527163113E-4,-9.162978968E-4
4.414982890E-1,-3.054326226E-4,1.221730490E-3,-9.162978968E-4
4.437343730E-1,-3.054326226E-4,0.000000000E0,3.054326226E-4
4.459696020E-1,-3.054326226E-4,-1.221730490E-3,1.527163113E-4
4.482023900E-1,-3.054326226E-4,-2.443460980E-3,-1.069014193E-3
4.504301120E-1,-4.581489484E-4,-4.886921961E-3,-1.069014193E-3
4.526782200E-1,-1.679879380E-3,-3.665191587E-3,-1.069014193E-3
4.549148540E-1,9.162978968E-4,-1.374446787E-3,-9.162978968E-4
4.571538060E-1,-3.054326226E-4,3.512475174E-3,1.527163084E-3
4.593875100E-1,-3.054326226E-4,0.000000000E0,-1.069014193E-3
4.616244480E-1,-4.581489484E-4,-3.665191587E-3,-1.069014193E-3
4.638595560E-1,2.138028387E-3,-2.596177394E-3,3.054326226E-4
4.660957010E-1,9.162978968E-4,-1.527163113E-4,-9.162978968E-4
4.683290380E-1,9.162978968E-4,2.290744567E-3,3.054326226E-4
4.705566380E-1,-1.527163084E-3,-1.221730490E-3,1.374446787E-3
4.728046850E-1,-1.527163084E-3,0.000000000E0,-1.069014193E-3
4.750399140E-1,9.162978968E-4,-1.374446787E-3,3.054326226E-4
4.772770360E-1,-2.748893574E-3,0.000000000E0,1.527163113E-4
4.795140970E-1,-1.679879380E-3,-3.665191587E-3,1.374446787E-3
4.817494480E-1,-3.054326226E-4,-1.221730490E-3,-1.069014193E-3
4.839863860E-1,-3.054326226E-4,0.000000000E0,1.527163084E-3
4.862219220E-1,2.138028387E-3,2.290744567E-3,1.527163084E-3
4.884582500E-1,2.138028387E-3,2.290744567E-3,-9.162978968E-4
4.906945780E-1,-1.527163084E-3,-1.221730490E-3,-2.290744567E-3
4.929306620E-1,7.635815418E-4,-3.665191587E-3,1.527163113E-4
4.951674780E-1,-3.054326226E-4,-2.443460980E-3,1.527163113E-4
4.974043560E-1,9.162978968E-4,-1.527163113E-4,-9.162978968E-4
4.996398900E-1,-1.527163084E-3,-1.221730490E-3,-2.290744567E-3
5.018756690E-1,-2.748893574E-3,1.221730490E-3,-3.512475174E-3
5.041110810E-1,-1.527163084E-3,0.000000000E0,-2.290744567E-3
5.063453350E-1,-3.054326226E-4,2.290744567E-3,3.054326226E-4
5.085845310E-1,-3.054326226E-4,1.221730490E-3,3.054326226E-4
5.108213480E-1,-2.748893574E-3,-1.221730490E-3,-1.069014193E-3
5.130593230E-1,-3.054326226E-4,1.221730490E-3,3.054326226E-4
5.152944920E-1,-1.527163084E-3,0.000000000E0,1.374446787E-3
5.175296610E-1,9.162978968E-4,1.069014193E-3,3.054326226E-4
5.197653180E-1,-3.054326226E-4,1.221730490E-3,-9.162978968E-4
5.220018900E-1,2.138028387E-3,-1.374446787E-3,-9.162978968E-4
5.242382180E-1,2.138028387E-3,-1.527163113E-4,3.054326226E-4
5.264746070E-1,9.162978968E-4,-1.527163113E-4,-9.162978968E-4
5.287106300E-1,2.138028387E-3,-1.527163113E-4,3.054326226E-4
5.309472630E-1,9.162978968E-4,-1.527163113E-4,1.527163084E-3
5.331843240E-1,-3.054326226E-4,0.000000000E0,-1.069014193E-3
5.354196750E-1,-1.527163084E-3,1.221730490E-3,-2.290744567E-3
5.376558200E-1,9.162978968E-4,2.290744567E-3,-9.162978968E-4
5.398920880E-1,-1.527163084E-3,0.000000000E0,1.527163113E-4
5.421240820E-1,-3.054326226E-4,1.221730490E-3,3.054326226E-4
5.443473490E-1,2.138028387E-3,1.069014193E-3,-9.162978968E-4
5.466005230E-1,-3.054326226E-4,0.000000000E0,-2.290744567E-3
5.488374000E-1,9.162978968E-4,-1.527163113E-4,3.054326226E-4
5.510787940E-1,-3.054326226E-4,1.221730490E-3,3.054326226E-4
5.533098120E-1,2.138028387E-3,1.069014193E-3,1.527163084E-3
5.555456520E-1,-4.581489484E-4,-2.443460980E-3,1.374446787E-3
5.577819790E-1,9.162978968E-4,-1.374446787E-3,-9.162978968E-4
5.600184910E-1,-3.054326226E-4,-1.221730490E-3,1.527163113E-4
5.622547580E-1,-2.748893574E-3,0.000000000E0,1.374446787E-3
5.644911480E-1,-1.527163084E-3,2.443460980E-3,1.527163084E-3
5.667272310E-1,9.162978968E-4,-1.527163113E-4,-9.162978968E-4
5.689643530E-1,-1.527163084E-3,1.221730490E-3,1.527163113E-4
5.711955540E-1,9.162978968E-4,-1.527163113E-4,1.527163084E-3
5.734196140E-1,2.138028387E-3,1.069014193E-3,3.054326226E-4
5.756715680E-1,9.162978968E-4,-1.527163113E-4,3.054326226E-4
5.779082010E-1,-2.748893574E-3,3.665191587E-3,1.527163113E-4
5.801488010E-1,-1.527163084E-3,1.221730490E-3,1.527163113E-4
5.823811620E-1,-3.054326226E-4,0.000000000E0,1.527163113E-4
5.846184060E-1,9.162978968E-4,-1.374446787E-3,3.054326226E-4
5.868541850E-1,2.138028387E-3,-1.527163113E-4,-9.162978968E-4
5.890895970E-1,2.138028387E-3,-1.374446787E-3,3.054326226E-4
5.913256190E-1,-3.054326226E-4,-2.443460980E-3,1.527163113E-4
5.935617640E-1,-1.679879380E-3,-3.665191587E-3,1.527163113E-4
5.957983370E-1,4.581489135E-3,-3.817907767E-3,1.527163084E-3
5.980346660E-1,-3.054326226E-4,0.000000000E0,1.527163084E-3
6.002709940E-1,9.162978968E-4,-1.374446787E-3,1.527163084E-3
6.025073220E-1,9.162978968E-4,-1.527163113E-4,3.054326226E-4
6.047443820E-1,-3.054326226E-4,-1.221730490E-3,-1.069014193E-3
6.069796730E-1,-4.581489484E-4,-2.443460980E-3,1.374446787E-3
6.092157570E-1,2.138028387E-3,-2.596177394E-3,3.054326226E-4
6.114515970E-1,3.359758761E-3,-1.527163113E-4,3.054326226E-4
6.136882300E-1,-4.581489484E-4,-2.443460980E-3,1.374446787E-3
6.159248020E-1,-1.527163084E-3,-2.443460980E-3,-1.069014193E-3
6.181578950E-1,-1.527163084E-3,0.000000000E0,-1.069014193E-3
6.203806730E-1,-1.527163084E-3,-1.221730490E-3,-1.069014193E-3
6.226159030E-1,-1.527163084E-3,1.221730490E-3,-1.069014193E-3
6.248696270E-1,-1.527163084E-3,0.000000000E0,-3.512475174E-3
6.271090070E-1,-1.679879380E-3,-2.443460980E-3,1.527163113E-4
6.293466160E-1,-2.748893574E-3,-1.221730490E-3,1.374446787E-3
6.315783670E-1,-1.527163084E-3,-1.221730490E-3,1.527163113E-4
6.338146950E-1,-3.054326226E-4,-2.443460980E-3,-1.069014193E-3
6.360509620E-1,-3.054326226E-4,2.290744567E-3,3.054326226E-4
6.382844210E-1,-1.527163084E-3,4.734205548E-3,1.527163084E-3
6.405126320E-1,2.138028387E-3,-1.527163113E-4,1.527163084E-3
6.427594580E-1,2.138028387E-3,-1.527163113E-4,3.054326226E-4
6.449958470E-1,2.138028387E-3,-1.374446787E-3,-2.138028387E-3
6.472347990E-1,-3.054326226E-4,0.000000000E0,-1.069014193E-3
6.494683200E-1,9.162978968E-4,-1.527163113E-4,3.054326226E-4
6.517048930E-1,-3.054326226E-4,0.000000000E0,1.527163084E-3
6.539414650E-1,-2.748893574E-3,1.221730490E-3,1.374446787E-3
6.561787080E-1,9.162978968E-4,-1.527163113E-4,-9.162978968E-4
6.584142430E-1,-4.581489484E-4,-3.665191587E-3,-2.290744567E-3
6.606452610E-1,-1.527163084E-3,0.000000000E0,1.527163084E-3
6.628683450E-1,-3.054326226E-4,0.000000000E0,3.054326226E-4
6.651220070E-1,9.162978968E-4,1.069014193E-3,-9.162978968E-4
6.673581520E-1,9.162978968E-4,-1.374446787E-3,-9.162978968E-4
6.695989960E-1,-3.054326226E-4,0.000000000E0,1.527163084E-3
6.718308080E-1,-1.527163084E-3,0.000000000E0,-1.069014193E-3
6.740676240E-1,-1.527163084E-3,-1.221730490E-3,1.527163113E-4
6.763012060E-1,-1.679879380E-3,-2.443460980E-3,-1.069014193E-3
6.785278300E-1,9.162978968E-4,-1.374446787E-3,3.054326226E-4
6.807758160E-1,-1.527163084E-3,1.221730490E-3,3.054326226E-4
6.830095190E-1,-1.527163084E-3,1.221730490E-3,3.054326226E-4
6.852358370E-1,-3.054326226E-4,1.221730490E-3,-9.162978968E-4
6.874694180E-1,9.162978968E-4,-1.374446787E-3,-9.162978968E-4
6.897029990E-1,-1.527163084E-3,-1.221730490E-3,1.527163113E-4
6.919365800E-1,-1.527163084E-3,1.221730490E-3,-9.162978968E-4
6.941701610E-1,-3.970623948E-3,-1.221730490E-3,-2.290744567E-3
6.964037420E-1,-3.054326226E-4,0.000000000E0,-2.138028387E-3
6.986373230E-1,-3.054326226E-4,1.221730490E-3,1.527163084E-3
7.008709040E-1,-3.054326226E-4,1.221730490E-3,1.527163084E-3
7.031044850E-1,-1.527163084E-3,0.000000000E0,-1.069014193E-3
7.053662080E-1,-3.054326226E-4,-1.221730490E-3,1.527163084E-3
7.076078460E-1,9.162978968E-4,-1.527163113E-4,-9.162978968E-4
7.098311740E-1,2.138028387E-3,1.069014193E-3,3.054326226E-4
7.120734230E-1,9.162978968E-4,1.069014193E-3,-9.162978968E-4
7.143085910E-1,9.162978968E-4,-1.527163113E-4,-9.162978968E-4
7.165593850E-1,-3.054326226E-4,2.290744567E-3,-2.138028387E-3
7.187947360E-1,9.162978968E-4,4.734205548E-3,1.527163084E-3
7.210325900E-1,-2.748893574E-3,1.221730490E-3,2.748893574E-3
7.232706890E-1,-2.748893574E-3,0.000000000E0,1.374446787E-3
7.255009740E-1,-1.527163084E-3,2.443460980E-3,-9.162978968E-4
7.277385840E-1,-3.054326226E-4,0.000000000E0,3.054326226E-4
7.299730810E-1,3.359758761E-3,2.290744567E-3,-2.138028387E-3
7.322097140E-1,9.162978968E-4,1.069014193E-3,3.054326226E-4
7.344455540E-1,-1.527163084E-3,1.221730490E-3,3.054326226E-4
7.366820660E-1,2.138028387E-3,-2.596177394E-3,3.054326226E-4
7.389183940E-1,-1.527163084E-3,0.000000000E0,-1.069014193E-3
7.411545390E-1,-3.054326226E-4,0.000000000E0,3.054326226E-4
7.433908060E-1,9.162978968E-4,-1.527163113E-4,-9.162978968E-4
7.456274390E-1,-3.054326226E-4,-2.443460980E-3,-1.069014193E-3
7.478645000E-1,9.162978968E-4,-2.443460980E-3,3.054326226E-4
7.500996680E-1,-3.054326226E-4,0.000000000E0,3.054326226E-4
7.523361790E-1,-1.679879380E-3,-3.665191587E-3,-1.069014193E-3
7.545719570E-1,-3.054326226E-4,-1.221730490E-3,3.054326226E-4
7.568083470E-1,-3.054326226E-4,2.290744567E-3,1.527163084E-3
7.590446140E-1,-3.054326226E-4,-1.221730490E-3,3.054326226E-4
7.612810040E-1,-3.054326226E-4,-1.221730490E-3,3.054326226E-4
7.635175760E-1,-3.970623948E-3,1.221730490E-3,2.596177394E-3
7.657543920E-1,-3.970623948E-3,-1.221730490E-3,-1.069014193E-3
7.679897440E-1,-2.748893574E-3,1.221730490E-3,1.374446787E-3
7.702260720E-1,9.162978968E-4,1.069014193E-3,1.527163084E-3
7.724620950E-1,9.162978968E-4,-1.527163113E-4,1.527163084E-3
7.746947610E-1,-3.054326226E-4,0.000000000E0,3.054326226E-4
7.769197970E-1,9.162978968E-4,1.069014193E-3,3.054326226E-4
7.791666850E-1,-1.527163084E-3,-1.221730490E-3,1.527163113E-4
7.814075290E-1,-1.527163084E-3,-1.221730490E-3,1.527163113E-4
7.836480080E-1,-1.527163084E-3,0.000000000E0,1.527163113E-4
7.858809170E-1,2.138028387E-3,1.069014193E-3,3.054326226E-4
7.881119960E-1,2.138028387E-3,3.512475174E-3,-9.162978968E-4
7.903361790E-1,-3.054326226E-4,1.221730490E-3,3.054326226E-4
7.925885600E-1,-1.527163084E-3,0.000000000E0,1.374446787E-3
7.948247050E-1,-3.054326226E-4,-1.221730490E-3,-2.290744567E-3
7.970652440E-1,-1.527163084E-3,1.221730490E-3,-9.162978968E-4
7.992985200E-1,9.162978968E-4,1.069014193E-3,-9.162978968E-4
8.015344210E-1,-3.054326226E-4,1.221730490E-3,3.054326226E-4
8.037667820E-1,-3.054326226E-4,-1.221730490E-3,3.054326226E-4
8.059938330E-1,9.162978968E-4,-1.374446787E-3,-9.162978968E-4
8.082391940E-1,-1.527163084E-3,-1.221730490E-3,-2.290744567E-3
8.104675270E-1,9.162978968E-4,-1.527163113E-4,1.527163084E-3
8.127177700E-1,9.162978968E-4,-1.527163113E-4,2.748893574E-3
8.149509250E-1,-1.527163084E-3,1.221730490E-3,-9.162978968E-4
8.171901830E-1,9.162978968E-4,-1.374446787E-3,1.527163084E-3
8.194243140E-1,-3.054326226E-4,2.290744567E-3,-2.138028387E-3
8.216599100E-1,-3.054326226E-4,1.221730490E-3,-9.162978968E-4
8.238959940E-1,9.162978968E-4,-1.374446787E-3,-9.162978968E-4
8.261320780E-1,-3.054326226E-4,-1.221730490E-3,1.527163084E-3
8.283654760E-1,-1.527163084E-3,-1.221730490E-3,1.527163113E-4
8.305931370E-1,9.162978968E-4,-1.374446787E-3,3.054326226E-4
8.328405740E-1,2.138028387E-3,-1.527163113E-4,-9.162978968E-4
8.350776340E-1,9.162978968E-4,3.512475174E-3,3.054326226E-4
8.373173190E-1,2.138028387E-3,-2.596177394E-3,3.054326226E-4
8.395498630E-1,-1.527163084E-3,-2.443460980E-3,-3.512475174E-3
8.417858250E-1,-3.054326226E-4,0.000000000E0,-9.162978968E-4
8.440219700E-1,9.162978968E-4,-1.527163113E-4,-2.138028387E-3
8.462585430E-1,-3.054326226E-4,-1.221730490E-3,-9.162978968E-4
8.484948710E-1,9.162978968E-4,-1.374446787E-3,3.054326226E-4
8.507309550E-1,2.138028387E-3,-1.527163113E-4,3.054326226E-4
8.529675270E-1,-3.054326226E-4,-1.221730490E-3,-9.162978968E-4
8.552045260E-1,-1.527163113E-4,4.734205548E-3,-9.162978968E-4
8.574410980E-1,-2.748893574E-3,1.221730490E-3,1.527163113E-4
8.596829800E-1,-1.527163084E-3,1.221730490E-3,3.054326226E-4
8.619174170E-1,-3.054326226E-4,0.000000000E0,-9.162978968E-4
8.641484350E-1,-1.527163084E-3,1.221730490E-3,-2.138028387E-3
8.663832980E-1,-2.748893574E-3,2.443460980E-3,-2.290744567E-3
8.686168180E-1,-3.054326226E-4,1.221730490E-3,-9.162978968E-4
8.708440520E-1,-3.054326226E-4,-1.221730490E-3,1.527163084E-3
8.730800750E-1,9.162978968E-4,-1.527163113E-4,-9.162978968E-4
8.753181740E-1,-1.527163084E-3,1.221730490E-3,-9.162978968E-4
8.775687840E-1,-4.581489484E-4,-4.886921961E-3,-1.069014193E-3
8.798048070E-1,9.162978968E-4,-2.443460980E-3,3.054326226E-4
8.820411960E-1,9.162978968E-4,-1.527163113E-4,1.527163084E-3
8.842746560E-1,-3.054326226E-4,-1.221730490E-3,-9.162978968E-4
8.865115330E-1,9.162978968E-4,2.290744567E-3,-2.138028387E-3
8.887463960E-1,2.138028387E-3,-2.596177394E-3,3.054326226E-4
8.909718600E-1,7.635815418E-4,-3.665191587E-3,1.527163084E-3
8.932077000E-1,-3.054326226E-4,0.000000000E0,3.054326226E-4
8.954557460E-1,2.138028387E-3,-1.374446787E-3,-2.138028387E-3
8.976915860E-1,-3.054326226E-4,-1.221730490E-3,-9.162978968E-4
8.999167460E-1,-3.054326226E-4,0.000000000E0,-2.138028387E-3
9.021528300E-1,-4.581489484E-4,-2.443460980E-3,2.748893574E-3
9.044010600E-1,-3.054326226E-4,-1.221730490E-3,3.054326226E-4
9.066403780E-1,-4.581489484E-4,-3.665191587E-3,-1.069014193E-3
9.088774990E-1,-4.581489484E-4,-2.443460980E-3,1.527163084E-3
9.111098000E-1,9.162978968E-4,2.290744567E-3,-2.138028387E-3
9.133459450E-1,9.162978968E-4,-1.527163113E-4,-9.162978968E-4
9.155819680E-1,9.162978968E-4,-1.374446787E-3,3.054326226E-4
9.178183570E-1,-4.581489484E-4,-2.443460980E-3,3.054326226E-4
9.200549290E-1,-3.054326226E-4,-1.221730490E-3,-9.162978968E-4
9.222910130E-1,-1.679879380E-3,-2.443460980E-3,-1.069014193E-3
9.245275850E-1,-4.581489484E-4,-3.665191587E-3,3.054326226E-4
9.267613500E-1,-3.054326226E-4,-1.221730490E-3,-9.162978968E-4
9.289877910E-1,-3.054326226E-4,-1.221730490E-3,-9.162978968E-4
9.312360820E-1,-3.054326226E-4,-1.221730490E-3,3.054326226E-4
9.334721660E-1,3.359758761E-3,1.069014193E-3,-2.138028387E-3
9.357114840E-1,9.162978968E-4,2.290744567E-3,-2.138028387E-3
9.379447610E-1,-3.054326226E-4,-1.221730490E-3,-9.162978968E-4
9.401811500E-1,9.162978968E-4,-1.374446787E-3,-9.162978968E-4
9.424187600E-1,2.290744567E-3,4.734205548E-3,-9.162978968E-4
9.446547830E-1,9.162978968E-4,-1.527163113E-4,3.054326226E-4
9.468898900E-1,9.162978968E-4,-2.443460980E-3,3.054326226E-4
9.491256680E-1,9.162978968E-4,-1.374446787E-3,1.527163084E-3
9.513619350E-1,2.138028387E-3,-2.596177394E-3,3.054326226E-4
9.535982640E-1,-3.970623948E-3,0.000000000E0,1.527163113E-4
9.558323340E-1,-1.679879380E-3,-3.665191587E-3,1.527163113E-4
9.580648780E-1,-3.054326226E-4,-2.443460980E-3,1.527163113E-4
9.603171360E-1,9.162978968E-4,-1.527163113E-4,-9.162978968E-4
9.625444920E-1,2.138028387E-3,1.069014193E-3,-9.162978968E-4
9.647818580E-1,2.138028387E-3,3.512475174E-3,3.054326226E-4
9.670134860E-1,9.162978968E-4,-1.527163113E-4,3.054326226E-4
9.692521950E-1,3.359758761E-3,-3.817907767E-3,3.054326226E-4
9.714885840E-1,-3.054326226E-4,0.000000000E0,3.054326226E-4
9.737250340E-1,-2.748893574E-3,1.221730490E-3,-1.069014193E-3
9.759606300E-1,-3.054326226E-4,0.000000000E0,-9.162978968E-4
9.781945160E-1,2.138028387E-3,-2.596177394E-3,1.527163084E-3
9.804224830E-1,-3.054326226E-4,1.221730490E-3,3.054326226E-4
9.826697360E-1,-2.901609987E-3,-2.443460980E-3,1.527163113E-4
9.849060040E-1,-1.679879380E-3,-2.443460980E-3,1.527163113E-4
9.871450170E-1,-1.527163084E-3,-1.221730490E-3,1.527163113E-4
9.893784160E-1,9.162978968E-4,-1.374446787E-3,-9.162978968E-4
9.916117530E-1,-3.054326226E-4,-1.221730490E-3,2.748893574E-3
9.938390480E-1,3.359758761E-3,1.069014193E-3,3.054326226E-4
9.960874000E-1,-3.054326226E-4,0.000000000E0,3.054326226E-4
9.983244000E-1,9.162978968E-4,-1.527163113E-4,3.054326226E-4
1.000562497E0,-3.054326226E-4,2.290744567E-3,3.054326226E-4
1.002792905E0,-3.054326226E-4,1.221730490E-3,3.054326226E-4
1.005020016E0,-3.054326226E-4,-2.443460980E-3,-1.069014193E-3
1.007268613E0,2.138028387E-3,-1.374446787E-3,3.054326226E-4
1.009504941E0,-5.345070735E-3,-1.221730490E-3,-1.069014193E-3
1.011744505E0,-1.527163084E-3,0.000000000E0,-1.069014193E-3
1.013978696E0,-3.054326226E-4,0.000000000E0,-9.162978968E-4
1.016214414E0,-1.527163084E-3,1.221730490E-3,3.054326226E-4
1.018450132E0,-1.527163084E-3,-1.221730490E-3,1.527163113E-4
1.020682737E0,-3.054326226E-4,2.290744567E-3,1.527163084E-3
1.022910215E0,-2.901609987E-3,-2.443460980E-3,-2.290744567E-3
1.025158628E0,-2.748893574E-3,-1.221730490E-3,1.527163113E-4
1.027392087E0,7.635815418E-4,-2.443460980E-3,2.748893574E-3
1.029622372E0,3.359758761E-3,-1.374446787E-3,3.054326226E-4
1.031867612E0,-3.054326226E-4,-1.221730490E-3,3.054326226E-4
1.034104429E0,9.162978968E-4,2.290744567E-3,3.054326226E-4
1.036342709E0,-3.054326226E-4,0.000000000E0,1.527163084E-3
1.038575864E0,-1.527163084E-3,2.443460980E-3,1.527163084E-3
1.040812071E0,9.162978968E-4,-1.374446787E-3,-9.162978968E-4
1.043048826E0,-1.679879380E-3,-3.665191587E-3,1.374446787E-3
1.045284910E0,-4.581489484E-4,-2.443460980E-3,2.748893574E-3
1.047518003E0,2.138028387E-3,1.069014193E-3,-9.162978968E-4
1.049745542E0,9.162978968E-4,1.069014193E-3,-9.162978968E-4
1.051994627E0,2.138028387E-3,1.069014193E-3,3.054326226E-4
1.054229917E0,3.359758761E-3,-1.374446787E-3,-9.162978968E-4
1.056468808E0,9.162978968E-4,-1.374446787E-3,-9.162978968E-4
1.058699155E0,2.138028387E-3,-1.374446787E-3,-9.162978968E-4
1.060926694E0,9.162978968E-4,2.290744567E-3,3.054326226E-4
1.063174863E0,-1.527163084E-3,-1.221730490E-3,-1.069014193E-3
1.065411130E0,1.985311974E-3,-3.817907767E-3,1.527163084E-3
1.067650205E0,9.162978968E-4,-2.443460980E-3,3.054326226E-4
1.069882810E0,9.162978968E-4,-1.527163113E-4,-9.162978968E-4
1.072119810E0,-3.054326226E-4,1.221730490E-3,-2.138028387E-3
1.074355955E0,-1.527163084E-3,1.221730490E-3,1.527163084E-3
1.076592649E0,-1.527163084E-3,-2.443460980E-3,-2.290744567E-3
1.078828306E0,-1.527163084E-3,1.221730490E-3,3.054326226E-4
1.081064634E0,-1.527163084E-3,0.000000000E0,1.527163084E-3
1.083301023E0,-3.054326226E-4,0.000000000E0,-9.162978968E-4
1.085538877E0,9.162978968E-4,-1.374446787E-3,-2.138028387E-3
1.087774106E0,-1.527163084E-3,0.000000000E0,-1.069014193E-3
1.090007566E0,-1.527163084E-3,-1.221730490E-3,-1.069014193E-3
1.092245542E0,-1.527163084E-3,0.000000000E0,1.374446787E-3
1.094482115E0,-1.527163084E-3,-1.221730490E-3,-1.069014193E-3
1.096719114E0,-2.901609987E-3,-2.443460980E-3,1.527163113E-4
1.098955076E0,-3.054326226E-4,1.221730490E-3,3.054326226E-4
1.101190855E0,9.162978968E-4,2.290744567E-3,-2.138028387E-3
1.103427549E0,9.162978968E-4,3.512475174E-3,-9.162978968E-4
1.105664732E0,2.138028387E-3,-1.527163113E-4,3.054326226E-4
1.107899900E0,2.138028387E-3,3.512475174E-3,3.054326226E-4
1.110135984E0,-2.748893574E-3,0.000000000E0,1.527163113E-4
1.112371945E0,-1.527163084E-3,1.221730490E-3,3.054326226E-4
1.114608396E0,2.138028387E-3,3.512475174E-3,3.054326226E-4
1.116844907E0,9.162978968E-4,-1.527163113E-4,-2.138028387E-3
1.119080747E0,-4.581489484E-4,-3.665191587E-3,1.374446787E-3
1.121317441E0,3.359758761E-3,-2.596177394E-3,3.054326226E-4
1.123554624E0,-3.054326226E-4,1.221730490E-3,-2.138028387E-3
1.125786863E0,-3.054326226E-4,1.221730490E-3,1.527163084E-3
1.128014158E0,2.138028387E-3,1.069014193E-3,3.054326226E-4
1.130261961E0,-3.054326226E-4,0.000000000E0,3.054326226E-4
1.132498777E0,-4.581489484E-4,-3.665191587E-3,1.527163113E-4
1.134737851E0,-1.679879380E-3,-2.443460980E-3,1.527163113E-4
1.136971189E0,-3.054326226E-4,-1.221730490E-3,-3.512475174E-3
1.139207456E0,9.162978968E-4,-1.527163113E-4,-2.138028387E-3
1.141444578E0,9.162978968E-4,-1.527163113E-4,3.054326226E-4
1.143679868E0,2.138028387E-3,-1.527163113E-4,3.054326226E-4
1.145916074E0,9.162978968E-4,-2.443460980E-3,1.527163084E-3
1.148149290E0,-3.054326226E-4,-2.443460980E-3,1.527163113E-4
1.150376462E0,-3.054326226E-4,-2.443460980E-3,-1.069014193E-3
1.152624998E0,-1.527163084E-3,0.000000000E0,1.374446787E-3
1.154861265E0,-3.054326226E-4,2.290744567E-3,3.054326226E-4
1.157101621E0,-3.054326226E-4,0.000000000E0,-1.069014193E-3
1.159334470E0,9.162978968E-4,-3.665191587E-3,-3.512475174E-3
1.161570066E0,2.138028387E-3,-1.527163113E-4,-9.162978968E-4
1.163805906E0,9.162978968E-4,2.290744567E-3,1.527163084E-3
1.166042234E0,9.162978968E-4,2.290744567E-3,3.054326226E-4
1.168275571E0,9.162978968E-4,2.290744567E-3,-9.162978968E-4
1.170503171E0,-3.054326226E-4,2.290744567E-3,-9.162978968E-4
1.172751218E0,9.162978968E-4,-2.443460980E-3,1.527163084E-3
1.174987790E0,-3.054326226E-4,0.000000000E0,1.527163084E-3
1.177227537E0,9.162978968E-4,-2.443460980E-3,1.527163113E-4
1.179459898E0,9.162978968E-4,-2.443460980E-3,1.527163113E-4
1.181695921E0,7.635815418E-4,-6.108652335E-3,1.527163113E-4
1.183931822E0,3.359758761E-3,-1.374446787E-3,3.054326226E-4
1.186168455E0,2.138028387E-3,1.069014193E-3,3.054326226E-4
1.188405088E0,-3.054326226E-4,0.000000000E0,-1.069014193E-3
1.190642758E0,9.162978968E-4,-1.374446787E-3,3.054326226E-4
1.192883115E0,9.162978968E-4,-1.527163113E-4,1.527163084E-3
1.195114744E0,2.138028387E-3,-1.374446787E-3,3.054326226E-4
1.197350034E0,-1.527163084E-3,-2.443460980E-3,-2.290744567E-3
1.199584836E0,-2.748893574E-3,-1.221730490E-3,1.527163113E-4
1.201822201E0,9.162978968E-4,-1.527163113E-4,-9.162978968E-4
1.204058530E0,9.162978968E-4,-1.374446787E-3,3.054326226E-4
1.206294920E0,-4.581489484E-4,-3.665191587E-3,1.527163113E-4
1.208531248E0,-1.527163084E-3,0.000000000E0,1.374446787E-3
1.210767820E0,-3.054326226E-4,1.221730490E-3,-3.512475174E-3
1.213004636E0,-3.970623948E-3,1.221730490E-3,1.374446787E-3
1.215239927E0,-3.054326226E-4,-1.221730490E-3,-2.290744567E-3
1.217476011E0,9.162978968E-4,-2.443460980E-3,1.527163113E-4
1.219709165E0,7.635815418E-4,-3.665191587E-3,1.527163113E-4
1.221937802E0,2.138028387E-3,1.069014193E-3,1.527163084E-3
1.224189207E0,-3.054326226E-4,3.512475174E-3,1.527163084E-3
1.226421445E0,-3.054326226E-4,0.000000000E0,-9.162978968E-4
1.228661924E0,-3.054326226E-4,-1.221730490E-3,1.527163113E-4
1.230893735E0,-1.527163084E-3,-2.443460980E-3,-1.069014193E-3
1.233130064E0,9.162978968E-4,2.290744567E-3,3.054326226E-4
1.235365659E0,-1.527163084E-3,1.221730490E-3,1.527163113E-4
1.237602232E0,9.162978968E-4,-1.527163113E-4,-9.162978968E-4
1.239838560E0,3.359758761E-3,-1.374446787E-3,-9.162978968E-4
1.242075010E0,-3.054326226E-4,-1.221730490E-3,1.527163113E-4
1.244311277E0,-1.527163084E-3,-2.443460980E-3,-3.512475174E-3
1.246547849E0,-1.527163084E-3,2.443460980E-3,-9.162978968E-4
1.248784666E0,-1.527163084E-3,-1.221730490E-3,1.527163113E-4
1.251019956E0,-3.054326226E-4,-1.221730490E-3,1.527163113E-4
1.253256040E0,9.162978968E-4,1.069014193E-3,-9.162978968E-4
1.255492123E0,-2.748893574E-3,-1.221730490E-3,1.374446787E-3
1.257728452E0,-1.527163084E-3,-1.221730490E-3,1.527163113E-4
1.259964841E0,-3.054326226E-4,-1.221730490E-3,1.527163113E-4
1.262201170E0,-4.581489484E-4,-3.665191587E-3,1.527163113E-4
1.264437803E0,-3.054326226E-4,1.221730490E-3,-2.138028387E-3
1.266674863E0,-1.527163084E-3,-2.443460980E-3,-2.290744567E-3
1.268910154E0,-3.054326226E-4,-1.221730490E-3,-1.069014193E-3
1.271146238E0,-3.054326226E-4,0.000000000E0,-9.162978968E-4
1.273381589E0,-3.054326226E-4,-1.221730490E-3,-2.290744567E-3
1.275617123E0,-1.527163084E-3,1.221730490E-3,-1.069014193E-3
1.277859800E0,-1.527163084E-3,-1.221730490E-3,1.374446787E-3
1.280091001E0,-3.054326226E-4,-1.221730490E-3,-1.069014193E-3
1.282328305E0,-3.054326226E-4,-1.221730490E-3,-1.069014193E-3
1.284563474E0,-3.054326226E-4,-1.221730490E-3,-1.069014193E-3
1.286800046E0,9.162978968E-4,-1.374446787E-3,3.054326226E-4
1.289036069E0,-2.748893574E-3,-1.221730490E-3,1.527163113E-4
1.291271909E0,-1.679879380E-3,-2.443460980E-3,1.527163113E-4
1.293508482E0,3.359758761E-3,-2.596177394E-3,-9.162978968E-4
1.295744871E0,9.162978968E-4,2.290744567E-3,-9.162978968E-4
1.297981504E0,-2.748893574E-3,1.221730490E-3,1.527163113E-4
1.300218748E0,-3.970623948E-3,0.000000000E0,1.374446787E-3
1.302454587E0,-1.527163084E-3,1.221730490E-3,1.527163084E-3
1.304688474E0,9.162978968E-4,1.069014193E-3,-9.162978968E-4
1.306920163E0,-3.054326226E-4,0.000000000E0,-9.162978968E-4
1.309162412E0,-3.054326226E-4,3.512475174E-3,3.054326226E-4
1.311398923E0,9.162978968E-4,-1.527163113E-4,3.054326226E-4
1.313636472E0,2.138028387E-3,-1.374446787E-3,3.054326226E-4
1.315871275E0,3.359758761E-3,-1.527163113E-4,-9.162978968E-4
1.318104673E0,3.359758761E-3,-1.374446787E-3,1.527163084E-3
1.320333005E0,9.162978968E-4,-1.527163113E-4,-9.162978968E-4
1.322580015E0,-3.054326226E-4,0.000000000E0,3.054326226E-4
1.324816160E0,-3.054326226E-4,0.000000000E0,1.527163084E-3
1.327055173E0,-1.527163084E-3,0.000000000E0,1.527163113E-4
1.329288816E0,-2.748893574E-3,0.000000000E0,1.527163113E-4
1.331525144E0,9.162978968E-4,1.069014193E-3,-9.162978968E-4
1.333761228E0,-3.054326226E-4,1.221730490E-3,3.054326226E-4
1.335997739E0,9.162978968E-4,-1.527163113E-4,1.527163084E-3
1.338231565E0,2.138028387E-3,-1.374446787E-3,1.527163084E-3
1.340456601E0,-1.527163084E-3,0.000000000E0,1.527163113E-4
1.342697629E0,9.162978968E-4,-1.374446787E-3,1.527163084E-3
1.344930174E0,9.162978968E-4,-2.443460980E-3,-9.162978968E-4
1.347181700E0,9.162978968E-4,-1.527163113E-4,-2.138028387E-3
1.349416441E0,-1.527163084E-3,0.000000000E0,1.527163113E-4
1.351654355E0,9.162978968E-4,-2.443460980E-3,-9.162978968E-4
1.353887693E0,-1.679879380E-3,-2.443460980E-3,1.374446787E-3
1.356124754E0,-1.527163084E-3,0.000000000E0,1.374446787E-3
1.358360044E0,9.162978968E-4,2.290744567E-3,1.527163084E-3
1.360596250E0,3.359758761E-3,-1.527163113E-4,1.527163084E-3
1.362832516E0,2.138028387E-3,-2.596177394E-3,1.527163084E-3
1.365068784E0,9.162978968E-4,-1.374446787E-3,1.527163084E-3
1.367304868E0,7.635815418E-4,-3.665191587E-3,1.527163113E-4
1.369538266E0,9.162978968E-4,-1.374446787E-3,1.527163084E-3
1.371764035E0,-3.054326226E-4,0.000000000E0,-9.162978968E-4
1.373999692E0,-1.527163084E-3,-1.221730490E-3,1.527163113E-4
1.376238096E0,-3.054326226E-4,-1.221730490E-3,3.054326226E-4
1.378486021E0,-1.527163084E-3,0.000000000E0,2.596177394E-3
1.380712583E0,-1.679879380E-3,-3.665191587E-3,1.527163113E-4
1.382958249E0,-2.901609987E-3,-2.443460980E-3,1.527163113E-4
1.385194761E0,-1.527163084E-3,4.734205548E-3,3.054326226E-4
1.387430112E0,9.162978968E-4,2.290744567E-3,1.527163084E-3
1.389652707E0,9.162978968E-4,1.069014193E-3,3.054326226E-4
1.391904844E0,-4.581489484E-4,-2.443460980E-3,2.596177394E-3
1.394140134E0,2.138028387E-3,-1.527163113E-4,1.527163084E-3
1.396377255E0,9.162978968E-4,-1.374446787E-3,3.054326226E-4
1.398597654E0,9.162978968E-4,3.512475174E-3,2.748893574E-3
1.400834104E0,-3.054326226E-4,0.000000000E0,1.527163084E-3
1.403072935E0,9.162978968E-4,2.290744567E-3,2.748893574E-3
1.405323972E0,9.162978968E-4,-1.527163113E-4,1.527163084E-3
1.407557798E0,-1.527163084E-3,0.000000000E0,-1.069014193E-3
1.409784605E0,-3.054326226E-4,1.221730490E-3,1.527163084E-3
1.412024656E0,-3.054326226E-4,3.512475174E-3,1.527163084E-3
1.414266111E0,-3.054326226E-4,1.221730490E-3,1.527163084E-3
1.416505368E0,-3.054326226E-4,-2.443460980E-3,-1.069014193E-3
1.418740109E0,9.162978968E-4,-1.374446787E-3,-9.162978968E-4
1.420975095E0,2.138028387E-3,-1.374446787E-3,2.748893574E-3
1.423211118E0,9.162978968E-4,2.290744567E-3,-9.162978968E-4
1.425447751E0,-3.054326226E-4,0.000000000E0,-2.138028387E-3
1.427684812E0,9.162978968E-4,-1.374446787E-3,-2.138028387E-3
1.429920164E0,-3.054326226E-4,1.221730490E-3,3.054326226E-4
1.432156187E0,-3.054326226E-4,-1.221730490E-3,3.054326226E-4
1.434392027E0,9.162978968E-4,2.290744567E-3,3.054326226E-4
1.436627561E0,-3.054326226E-4,-1.221730490E-3,-2.290744567E-3
1.438857785E0,9.162978968E-4,-1.527163113E-4,-2.138028387E-3
1.441089414E0,-3.054326226E-4,-2.443460980E-3,-2.138028387E-3
1.443338926E0,9.162978968E-4,-1.527163113E-4,-2.138028387E-3
1.445575986E0,3.359758761E-3,1.069014193E-3,1.527163084E-3
1.447813046E0,-3.054326226E-4,-1.221730490E-3,1.527163084E-3
1.450045834E0,-1.527163084E-3,0.000000000E0,3.054326226E-4
1.452282101E0,-3.054326226E-4,1.221730490E-3,3.054326226E-4
1.454518552E0,-2.748893574E-3,0.000000000E0,1.374446787E-3
1.456755125E0,-1.679879380E-3,-3.665191587E-3,1.374446787E-3
1.458991209E0,-3.054326226E-4,-1.221730490E-3,3.054326226E-4
1.461227842E0,9.162978968E-4,-1.374446787E-3,3.054326226E-4
1.463464841E0,-1.679879380E-3,-4.886921961E-3,1.374446787E-3
1.465700193E0,-1.527163084E-3,-1.221730490E-3,1.527163084E-3
1.467936277E0,2.138028387E-3,1.069014193E-3,1.527163084E-3
1.470172361E0,-3.054326226E-4,1.221730490E-3,3.054326226E-4
1.472408872E0,-1.679879380E-3,-2.443460980E-3,-1.069014193E-3
1.474642026E0,-3.054326226E-4,0.000000000E0,3.054326226E-4
1.476869382E0,7.635815418E-4,-2.443460980E-3,1.527163084E-3
1.479117856E0,-1.527163084E-3,-1.221730490E-3,1.527163113E-4
1.481354734E0,-4.581489484E-4,-2.443460980E-3,3.054326226E-4
1.483593016E0,-3.054326226E-4,0.000000000E0,-9.162978968E-4
1.485826109E0,-4.581489484E-4,-3.665191587E-3,1.527163084E-3
1.488059324E0,-3.054326226E-4,0.000000000E0,3.970623948E-3
1.490287107E0,-3.054326226E-4,2.290744567E-3,3.054326226E-4
1.492535154E0,2.138028387E-3,-1.527163113E-4,3.054326226E-4
1.494771299E0,-3.054326226E-4,2.290744567E-3,-9.162978968E-4
1.497010984E0,-2.748893574E-3,2.443460980E-3,-9.162978968E-4
1.499244871E0,-2.748893574E-3,0.000000000E0,-1.069014193E-3
1.501480222E0,-3.054326226E-4,1.221730490E-3,3.054326226E-4
1.503713254E0,9.162978968E-4,3.512475174E-3,1.527163084E-3
1.505940365E0,-1.527163113E-4,4.734205548E-3,-9.162978968E-4
1.508185666E0,-2.748893574E-3,0.000000000E0,1.527163113E-4
1.510413084E0,-1.527163084E-3,-1.221730490E-3,1.527163084E-3
1.512664610E0,-1.527163084E-3,0.000000000E0,-1.069014193E-3
1.514898923E0,-3.054326226E-4,2.290744567E-3,3.054326226E-4
1.517137814E0,-3.054326226E-4,-2.443460980E-3,-1.069014193E-3
1.519370359E0,2.138028387E-3,1.069014193E-3,-2.138028387E-3
1.521606138E0,-3.054326226E-4,1.221730490E-3,3.054326226E-4
1.523842283E0,2.138028387E-3,3.512475174E-3,-9.162978968E-4
1.526078794E0,-2.748893574E-3,1.221730490E-3,1.374446787E-3
1.528312253E0,-2.748893574E-3,0.000000000E0,-1.069014193E-3
1.530539793E0,-1.527163084E-3,1.221730490E-3,3.054326226E-4
1.532787839E0,9.162978968E-4,-1.374446787E-3,-9.162978968E-4
1.535024839E0,9.162978968E-4,-2.443460980E-3,3.054326226E-4
1.537262814E0,-1.527163084E-3,0.000000000E0,1.374446787E-3
1.539496030E0,-3.054326226E-4,0.000000000E0,3.054326226E-4
1.541732176E0,9.162978968E-4,1.069014193E-3,-9.162978968E-4
1.543968992E0,-2.748893574E-3,1.221730490E-3,1.527163113E-4
1.546205076E0,-3.054326226E-4,1.221730490E-3,3.054326226E-4
1.548441160E0,2.138028387E-3,-1.527163113E-4,-9.162978968E-4
1.550677671E0,-3.054326226E-4,1.221730490E-3,-9.162978968E-4
1.552914732E0,-1.527163084E-3,-2.443460980E-3,-1.069014193E-3
1.555149900E0,-1.527163084E-3,0.000000000E0,-1.069014193E-3
1.557386228E0,-2.748893574E-3,0.000000000E0,-1.069014193E-3
1.559622250E0,-4.581489484E-4,-3.665191587E-3,-2.290744567E-3
1.561858640E0,-2.901609987E-3,-3.665191587E-3,-1.069014193E-3
1.564094968E0,-1.527163084E-3,1.221730490E-3,-9.162978968E-4
1.566331357E0,-1.527163084E-3,2.443460980E-3,1.527163084E-3
1.568565610E0,9.162978968E-4,-1.374446787E-3,1.527163084E-3
1.570791684E0,-3.054326226E-4,-2.443460980E-3,1.527163113E-4
1.573028074E0,9.162978968E-4,2.290744567E-3,-9.162978968E-4
1.575276304E0,2.138028387E-3,1.069014193E-3,-9.162978968E-4
1.577514951E0,-1.527163084E-3,1.221730490E-3,-9.162978968E-4
1.579751767E0,-2.748893574E-3,0.000000000E0,-1.069014193E-3
1.581985044E0,-2.748893574E-3,0.000000000E0,1.527163113E-4
1.584221433E0,-1.527163084E-3,1.221730490E-3,-1.069014193E-3
1.586458982E0,-1.527163084E-3,1.221730490E-3,1.374446787E-3
1.588694822E0,2.138028387E-3,-1.527163113E-4,-9.162978968E-4
1.590930173E0,2.138028387E-3,-1.527163113E-4,-9.162978968E-4
1.593165952E0,-3.054326226E-4,0.000000000E0,3.054326226E-4
1.595402281E0,2.138028387E-3,-1.374446787E-3,1.527163084E-3
1.597638670E0,-1.527163084E-3,1.221730490E-3,-1.069014193E-3
1.599875242E0,-1.527163084E-3,-1.221730490E-3,-2.290744567E-3
1.602111265E0,-1.527163084E-3,-2.443460980E-3,-1.069014193E-3
1.604347654E0,9.162978968E-4,-1.527163113E-4,1.527163084E-3
1.606582150E0,-1.527163084E-3,-1.221730490E-3,1.527163113E-4
1.608807065E0,2.138028387E-3,-1.527163113E-4,3.054326226E-4
1.611044492E0,-1.527163084E-3,2.443460980E-3,-1.069014193E-3
1.613292478E0,-1.527163084E-3,3.665191587E-3,3.054326226E-4
1.615531369E0,-1.527163084E-3,2.443460980E-3,-1.069014193E-3
1.617768308E0,-1.527163084E-3,1.221730490E-3,1.527163113E-4
1.620001157E0,-3.054326226E-4,0.000000000E0,1.527163084E-3
1.622237790E0,9.162978968E-4,-1.527163113E-4,3.054326226E-4
1.624474790E0,-3.054326226E-4,1.221730490E-3,-9.162978968E-4
1.626710203E0,9.162978968E-4,1.069014193E-3,-9.162978968E-4
1.628946287E0,-3.054326226E-4,0.000000000E0,3.054326226E-4
1.631182310E0,9.162978968E-4,-1.527163113E-4,1.527163084E-3
1.633418699E0,9.162978968E-4,-1.374446787E-3,3.054326226E-4
1.635655027E0,-3.054326226E-4,-1.221730490E-3,-1.069014193E-3
1.637888059E0,9.162978968E-4,-1.374446787E-3,-2.138028387E-3
1.640118711E0,-3.054326226E-4,-1.221730490E-3,1.527163113E-4
1.642364866E0,-1.527163084E-3,0.000000000E0,-1.069014193E-3
1.644600034E0,-1.527163084E-3,2.443460980E-3,-1.069014193E-3
1.646838498E0,-3.054326226E-4,-2.443460980E-3,-1.069014193E-3
1.649072447E0,9.162978968E-4,-1.527163113E-4,3.054326226E-4
1.651308897E0,2.138028387E-3,1.069014193E-3,-2.138028387E-3
1.653545164E0,9.162978968E-4,-1.527163113E-4,3.054326226E-4
1.655781492E0,-2.748893574E-3,2.443460980E-3,1.527163084E-3
1.658018979E0,9.162978968E-4,2.290744567E-3,3.054326226E-4
1.660254636E0,3.359758761E-3,2.290744567E-3,-9.162978968E-4
1.662490232E0,-4.581489484E-4,-2.443460980E-3,1.527163084E-3
1.664726072E0,-3.054326226E-4,0.000000000E0,-9.162978968E-4
1.666962644E0,9.162978968E-4,1.069014193E-3,-9.162978968E-4
1.669198667E0,-2.748893574E-3,1.221730490E-3,-2.290744567E-3
1.671435056E0,-3.054326226E-4,1.221730490E-3,3.054326226E-4
1.673671323E0,-3.054326226E-4,-1.221730490E-3,-9.162978968E-4
1.675907956E0,9.162978968E-4,3.512475174E-3,3.054326226E-4
1.678143125E0,-3.054326226E-4,-1.221730490E-3,3.054326226E-4
1.680373472E0,-3.054326226E-4,1.221730490E-3,3.054326226E-4
1.682616148E0,-3.054326226E-4,1.221730490E-3,-9.162978968E-4
1.684852232E0,-3.054326226E-4,3.512475174E-3,-3.359758761E-3
1.687090269E0,9.162978968E-4,2.290744567E-3,-9.162978968E-4
1.689325193E0,-1.527163084E-3,1.221730490E-3,1.527163084E-3
1.691559385E0,-3.054326226E-4,-2.443460980E-3,-9.162978968E-4
1.693790403E0,9.162978968E-4,-1.527163113E-4,3.054326226E-4
1.696035154E0,2.138028387E-3,-1.527163113E-4,3.054326226E-4
1.698267392E0,2.138028387E-3,-1.527163113E-4,3.054326226E-4
1.700496763E0,-3.054326226E-4,2.290744567E-3,-9.162978968E-4
1.702742368E0,3.359758761E-3,-1.527163113E-4,3.054326226E-4
1.704979002E0,9.162978968E-4,2.290744567E-3,1.527163084E-3
1.707218198E0,-1.527163084E-3,2.443460980E-3,3.054326226E-4
1.709451414E0,-3.970623948E-3,-1.221730490E-3,-2.290744567E-3
1.711688047E0,-4.581489484E-4,-3.665191587E-3,-2.290744567E-3
1.713925230E0,-1.679879380E-3,-2.443460980E-3,1.527163113E-4
1.716160093E0,-5.192354787E-3,1.221730490E-3,1.527163113E-4
1.718396177E0,-2.901609987E-3,-2.443460980E-3,-1.069014193E-3
1.720632199E0,-3.054326226E-4,-1.221730490E-3,3.054326226E-4
1.722868894E0,2.138028387E-3,-1.527163113E-4,1.527163084E-3
1.725105222E0,9.162978968E-4,1.069014193E-3,3.054326226E-4
1.727341611E0,9.162978968E-4,-1.527163113E-4,3.054326226E-4
1.729579099E0,2.138028387E-3,-1.374446787E-3,1.527163084E-3
1.731814939E0,-3.054326226E-4,1.221730490E-3,3.054326226E-4
1.734050291E0,2.138028387E-3,2.290744567E-3,1.527163084E-3
1.736286070E0,2.138028387E-3,-2.596177394E-3,1.527163084E-3
1.738522398E0,2.138028387E-3,-2.596177394E-3,3.054326226E-4
1.740758726E0,-1.527163084E-3,0.000000000E0,1.374446787E-3
1.742995115E0,-3.054326226E-4,1.221730490E-3,3.054326226E-4
1.745231443E0,2.138028387E-3,-1.527163113E-4,-9.162978968E-4
1.747465024E0,9.162978968E-4,1.069014193E-3,3.054326226E-4
1.749692869E0,-3.054326226E-4,0.000000000E0,-9.162978968E-4
1.751940122E0,-3.054326226E-4,0.000000000E0,1.527163084E-3
1.754176267E0,-2.748893574E-3,1.221730490E-3,1.374446787E-3
1.756411801E0,9.162978968E-4,1.069014193E-3,3.054326226E-4
1.758632993E0,9.162978968E-4,-1.374446787E-3,-2.138028387E-3
1.760882139E0,2.138028387E-3,-1.374446787E-3,3.054326226E-4
1.763121519E0,4.581489135E-3,-3.817907767E-3,1.527163084E-3
1.765361692E0,-3.054326226E-4,-1.221730490E-3,1.374446787E-3
1.767592831E0,-2.901609987E-3,-2.443460980E-3,1.527163113E-4
1.769818540E0,-4.581489484E-4,-3.665191587E-3,-1.069014193E-3
1.772066465E0,9.162978968E-4,-1.374446787E-3,3.054326226E-4
1.774302671E0,-3.054326226E-4,0.000000000E0,3.054326226E-4
1.776541745E0,2.138028387E-3,2.290744567E-3,1.527163084E-3
1.778775327E0,-1.527163084E-3,-1.221730490E-3,1.527163113E-4
1.781011167E0,-1.527163084E-3,-2.443460980E-3,-1.069014193E-3
1.783248044E0,-2.748893574E-3,1.221730490E-3,1.527163113E-4
1.785480527E0,-2.901609987E-3,-2.443460980E-3,1.527163113E-4
1.787700315E0,-3.054326226E-4,-1.221730490E-3,-1.069014193E-3
1.789945066E0,9.162978968E-4,1.069014193E-3,3.054326226E-4
1.792192625E0,9.162978968E-4,-2.443460980E-3,1.527163084E-3
1.794433225E0,-3.054326226E-4,-1.221730490E-3,-1.069014193E-3
1.796668088E0,-2.748893574E-3,1.221730490E-3,-1.069014193E-3
1.798901548E0,-1.527163084E-3,-1.221730490E-3,-9.162978968E-4
1.801138914E0,-3.054326226E-4,1.221730490E-3,-3.359758761E-3
1.803374998E0,2.138028387E-3,1.069014193E-3,3.054326226E-4
1.805610349E0,9.162978968E-4,1.069014193E-3,3.054326226E-4
1.807846188E0,-3.054326226E-4,1.221730490E-3,2.748893574E-3
1.810082455E0,9.162978968E-4,-2.443460980E-3,3.054326226E-4
1.812318845E0,3.359758761E-3,-1.527163113E-4,-9.162978968E-4
1.814555418E0,-1.527163084E-3,0.000000000E0,3.054326226E-4
1.816791502E0,-3.054326226E-4,2.290744567E-3,-2.138028387E-3
1.819028074E0,-3.054326226E-4,-1.221730490E-3,3.054326226E-4
1.821264829E0,-3.054326226E-4,-1.221730490E-3,1.527163084E-3
1.823500242E0,-1.679879380E-3,-2.443460980E-3,1.527163113E-4
1.825736570E0,9.162978968E-4,-1.374446787E-3,3.054326226E-4
1.827972654E0,-1.527163084E-3,0.000000000E0,-2.138028387E-3
1.830208982E0,-2.748893574E-3,-1.221730490E-3,1.527163113E-4
1.832445249E0,-3.054326226E-4,-1.221730490E-3,3.054326226E-4
1.834681394E0,-1.679879380E-3,-6.108652335E-3,-1.069014193E-3
1.836918210E0,2.138028387E-3,-1.527163113E-4,-9.162978968E-4
1.839154966E0,9.162978968E-4,-1.527163113E-4,3.054326226E-4
1.841390073E0,2.138028387E-3,-1.374446787E-3,3.054326226E-4
1.843626157E0,9.162978968E-4,3.512475174E-3,3.054326226E-4
1.845862486E0,-3.054326226E-4,3.512475174E-3,3.054326226E-4
1.848095884E0,-3.054326226E-4,0.000000000E0,-9.162978968E-4
1.850323301E0,-1.679879380E-3,-2.443460980E-3,1.527163113E-4
1.852571470E0,-1.679879380E-3,-2.443460980E-3,1.527163084E-3
1.854807859E0,-3.054326226E-4,0.000000000E0,-9.162978968E-4
1.857047910E0,-3.054326226E-4,3.512475174E-3,3.054326226E-4
1.859280210E0,-1.527163084E-3,3.665191587E-3,2.748893574E-3
1.861516355E0,-1.527163084E-3,0.000000000E0,3.054326226E-4
1.863752377E0,-3.054326226E-4,-1.221730490E-3,3.054326226E-4
1.865988767E0,-1.679879380E-3,-2.443460980E-3,-1.069014193E-3
1.868222409E0,-3.054326226E-4,-2.443460980E-3,-2.138028387E-3
1.870447019E0,9.162978968E-4,2.290744567E-3,3.054326226E-4
1.872684384E0,-3.054326226E-4,1.221730490E-3,3.054326226E-4
1.874923337E0,-1.527163084E-3,1.221730490E-3,-2.290744567E-3
1.877173337E0,-3.054326226E-4,0.000000000E0,-9.162978968E-4
1.879409177E0,-3.054326226E-4,1.221730490E-3,-9.162978968E-4
1.881645444E0,9.162978968E-4,-1.374446787E-3,-9.162978968E-4
1.883878904E0,1.069014193E-3,4.734205548E-3,3.054326226E-4
1.886115476E0,2.138028387E-3,1.069014193E-3,-9.162978968E-4
1.888348569E0,-3.054326226E-4,-1.221730490E-3,-1.069014193E-3
1.890576230E0,-3.054326226E-4,1.221730490E-3,2.748893574E-3
1.892825132E0,-3.054326226E-4,0.000000000E0,3.054326226E-4
1.895057370E0,-3.054326226E-4,-1.221730490E-3,3.054326226E-4
1.897284971E0,-3.054326226E-4,0.000000000E0,-9.162978968E-4
1.899520933E0,9.162978968E-4,1.069014193E-3,-9.162978968E-4
1.901769041E0,9.162978968E-4,-2.443460980E-3,-9.162978968E-4
1.904008298E0,9.162978968E-4,-1.374446787E-3,3.054326226E-4
1.906246091E0,9.162978968E-4,-1.527163113E-4,-2.138028387E-3
1.908484189E0,9.162978968E-4,1.069014193E-3,-2.138028387E-3
1.910715269E0,-1.527163084E-3,-2.443460980E-3,-1.069014193E-3
1.912950071E0,-3.054326226E-4,-1.221730490E-3,3.054326226E-4
1.915184751E0,-3.054326226E-4,0.000000000E0,-2.138028387E-3
1.917422482E0,-2.901609987E-3,-2.443460980E-3,1.527163113E-4
1.919658933E0,-3.054326226E-4,-2.443460980E-3,-1.069014193E-3
1.921895261E0,2.138028387E-3,-2.596177394E-3,-9.162978968E-4
1.924131345E0,-1.527163084E-3,0.000000000E0,-1.069014193E-3
1.926368162E0,-1.527163084E-3,0.000000000E0,1.527163113E-4
1.928604978E0,-2.748893574E-3,0.000000000E0,-1.069014193E-3
1.930840330E0,-3.054326226E-4,0.000000000E0,-2.138028387E-3
1.933076414E0,2.138028387E-3,1.069014193E-3,-9.162978968E-4
1.935310911E0,-2.748893574E-3,0.000000000E0,1.527163113E-4
1.937538755E0,-3.054326226E-4,-1.221730490E-3,1.527163084E-3
1.939773435E0,4.581489135E-3,1.069014193E-3,-9.162978968E-4
1.942021665E0,-3.054326226E-4,0.000000000E0,1.527163084E-3
1.944260862E0,3.359758761E-3,-1.527163113E-4,3.054326226E-4
1.946498044E0,2.138028387E-3,-1.527163113E-4,-9.162978968E-4
1.948730222E0,7.635815418E-4,-3.665191587E-3,-2.138028387E-3
1.950966306E0,-1.527163084E-3,0.000000000E0,-9.162978968E-4
1.953202573E0,-1.527163084E-3,-1.221730490E-3,-1.069014193E-3
1.955438901E0,9.162978968E-4,1.069014193E-3,-9.162978968E-4
1.957675046E0,-3.054326226E-4,1.221730490E-3,-9.162978968E-4
1.959911619E0,-3.054326226E-4,-1.221730490E-3,-9.162978968E-4
1.962148252E0,-1.527163084E-3,1.221730490E-3,1.527163084E-3
1.964385313E0,9.162978968E-4,2.290744567E-3,3.054326226E-4
1.966620298E0,9.162978968E-4,-1.374446787E-3,-9.162978968E-4
1.968856443E0,1.985311974E-3,-3.817907767E-3,-9.162978968E-4
1.971092648E0,9.162978968E-4,-2.443460980E-3,-3.359758761E-3
1.973325315E0,-3.054326226E-4,0.000000000E0,3.054326226E-4
1.975551267E0,-1.527163084E-3,1.221730490E-3,-9.162978968E-4
1.977801450E0,-3.054326226E-4,-1.221730490E-3,1.527163084E-3
1.980038144E0,2.138028387E-3,-1.374446787E-3,-9.162978968E-4
1.982278623E0,-3.054326226E-4,0.000000000E0,-9.162978968E-4
1.984510191E0,-3.054326226E-4,-1.221730490E-3,-9.162978968E-4
1.986746336E0,2.138028387E-3,-2.596177394E-3,3.054326226E-4
1.988982664E0,7.635815418E-4,-2.443460980E-3,1.527163084E-3
1.991219236E0,-2.748893574E-3,1.221730490E-3,1.527163113E-4
1.993455381E0,9.162978968E-4,1.069014193E-3,-9.162978968E-4
1.995691648E0,9.162978968E-4,1.069014193E-3,1.527163084E-3
1.997928159E0,-3.970623948E-3,0.000000000E0,1.527163113E-4
2.000165037E0,-3.054326226E-4,1.221730490E-3,3.054326226E-4
2.002399777E0,-4.581489484E-4,-3.665191587E-3,3.054326226E-4
2.004631223E0,-3.054326226E-4,0.000000000E0,-3.359758761E-3
2.006860531E0,-3.054326226E-4,-1.221730490E-3,3.054326226E-4
2.009108884E0,-1.679879380E-3,-2.443460980E-3,1.374446787E-3
2.011346006E0,9.162978968E-4,3.512475174E-3,-9.162978968E-4
2.013584776E0,2.138028387E-3,-1.527163113E-4,-9.162978968E-4
2.015819089E0,1.985311974E-3,-3.817907767E-3,1.527163084E-3
2.018054135E0,-2.901609987E-3,-2.443460980E-3,1.527163113E-4
2.020287290E0,-3.054326226E-4,-2.443460980E-3,-2.138028387E-3
2.022526121E0,9.162978968E-4,-1.527163113E-4,1.527163084E-3
2.024762693E0,9.162978968E-4,-1.374446787E-3,2.748893574E-3
2.026999814E0,-1.679879380E-3,-2.443460980E-3,1.527163113E-4
2.029235654E0,-1.679879380E-3,-2.443460980E-3,-1.069014193E-3
2.031471677E0,-1.527163084E-3,0.000000000E0,1.527163084E-3
2.033708249E0,9.162978968E-4,2.290744567E-3,-9.162978968E-4
2.035945005E0,9.162978968E-4,-1.527163113E-4,-9.162978968E-4
2.038177366E0,9.162978968E-4,3.512475174E-3,3.054326226E-4
2.040399961E0,-1.527163084E-3,1.221730490E-3,1.527163084E-3
2.042630551E0,-3.054326226E-4,0.000000000E0,-9.162978968E-4
2.044873289E0,-3.054326226E-4,0.000000000E0,1.527163084E-3
2.047128415E0,-3.970623948E-3,0.000000000E0,2.596177394E-3
2.049365842E0,7.635815418E-4,-4.886921961E-3,1.527163084E-3
2.051602109E0,-4.581489484E-4,-4.886921961E-3,-2.290744567E-3
2.053835203E0,-3.054326226E-4,0.000000000E0,3.054326226E-4
2.056070615E0,9.162978968E-4,3.512475174E-3,3.054326226E-4
2.058306210E0,-1.527163084E-3,0.000000000E0,-9.162978968E-4
2.060540951E0,-3.054326226E-4,-2.443460980E-3,-2.138028387E-3
2.062778989E0,9.162978968E-4,1.069014193E-3,3.054326226E-4
2.065015379E0,-3.054326226E-4,-1.221730490E-3,3.054326226E-4
2.067252134E0,-3.054326226E-4,-1.221730490E-3,2.748893574E-3
2.069484983E0,-1.527163084E-3,0.000000000E0,3.054326226E-4
2.071711851E0,2.138028387E-3,-2.596177394E-3,1.527163084E-3
2.073960142E0,2.138028387E-3,-1.374446787E-3,3.054326226E-4
2.076196470E0,9.162978968E-4,-1.527163113E-4,3.054326226E-4
2.078435910E0,2.138028387E-3,-1.527163113E-4,-9.162978968E-4
2.080667356E0,-1.527163084E-3,2.443460980E-3,-2.138028387E-3
2.082897947E0,-2.748893574E-3,0.000000000E0,-2.290744567E-3
2.085141904E0,-1.527163084E-3,-1.221730490E-3,-2.290744567E-3
2.087376767E0,-3.054326226E-4,1.221730490E-3,3.054326226E-4
2.089606565E0,9.162978968E-4,-1.374446787E-3,3.054326226E-4
2.091850339E0,-3.054326226E-4,0.000000000E0,3.054326226E-4
2.094086424E0,9.162978968E-4,-1.527163113E-4,1.527163084E-3
2.096325620E0,2.138028387E-3,-1.527163113E-4,1.527163084E-3
2.098559324E0,2.138028387E-3,1.069014193E-3,3.054326226E-4
2.100791318E0,-1.527163084E-3,1.221730490E-3,3.054326226E-4
2.103015318E0,9.162978968E-4,2.290744567E-3,3.054326226E-4
2.105268186E0,2.138028387E-3,1.069014193E-3,3.054326226E-4
2.107501828E0,-3.054326226E-4,-1.221730490E-3,3.054326226E-4
2.109729306E0,-3.054326226E-4,1.221730490E-3,-2.138028387E-3
2.111964536E0,-3.054326226E-4,0.000000000E0,3.054326226E-4
2.114212644E0,9.162978968E-4,-1.527163113E-4,1.527163084E-3
2.116452024E0,2.138028387E-3,1.069014193E-3,2.748893574E-3
2.118688536E0,-1.679879380E-3,-2.443460980E-3,1.374446787E-3
2.120921629E0,-1.679879380E-3,-2.443460980E-3,2.596177394E-3
2.123158201E0,9.162978968E-4,2.290744567E-3,1.527163084E-3
2.125395017E0,-3.054326226E-4,2.290744567E-3,3.054326226E-4
2.127627622E0,-3.054326226E-4,0.000000000E0,3.054326226E-4
2.129854734E0,-3.054326226E-4,0.000000000E0,3.054326226E-4
2.132102781E0,-3.054326226E-4,0.000000000E0,-9.162978968E-4
2.134338987E0,-1.527163084E-3,1.221730490E-3,3.054326226E-4
2.136578122E0,-1.527163084E-3,0.000000000E0,3.054326226E-4
2.138811521E0,-3.054326226E-4,0.000000000E0,3.054326226E-4
2.141048337E0,9.162978968E-4,-1.374446787E-3,3.054326226E-4
2.143285276E0,3.359758761E-3,-1.527163113E-4,-9.162978968E-4
2.145520750E0,2.138028387E-3,-1.374446787E-3,1.527163084E-3
2.147756528E0,-3.054326226E-4,1.221730490E-3,3.054326226E-4
2.149992674E0,2.138028387E-3,-1.527163113E-4,-9.162978968E-4
2.152229185E0,-1.527163084E-3,1.221730490E-3,1.527163084E-3
2.154465513E0,9.162978968E-4,-1.527163113E-4,3.054326226E-4
2.156701658E0,9.162978968E-4,2.290744567E-3,-9.162978968E-4
2.158939145E0,2.138028387E-3,1.069014193E-3,3.054326226E-4
2.161174985E0,9.162978968E-4,-1.374446787E-3,-2.138028387E-3
2.163410459E0,9.162978968E-4,1.069014193E-3,-9.162978968E-4
2.165646482E0,2.138028387E-3,-1.527163113E-4,2.748893574E-3
2.167882810E0,-3.054326226E-4,1.221730490E-3,1.527163084E-3
2.170119138E0,2.138028387E-3,2.290744567E-3,3.054326226E-4
2.172350888E0,9.162978968E-4,-1.374446787E-3,-9.162978968E-4
2.174573423E0,-3.054326226E-4,-1.221730490E-3,1.527163084E-3
2.176828123E0,-3.054326226E-4,2.290744567E-3,-9.162978968E-4
2.179065122E0,-3.054326226E-4,0.000000000E0,1.527163084E-3
2.181304807E0,-3.054326226E-4,2.290744567E-3,3.054326226E-4
2.183536680E0,-3.054326226E-4,0.000000000E0,3.054326226E-4
2.185772947E0,-3.054326226E-4,0.000000000E0,3.054326226E-4
2.188009336E0,-3.054326226E-4,0.000000000E0,-9.162978968E-4
2.190245603E0,9.162978968E-4,-1.527163113E-4,-9.162978968E-4
2.192481626E0,9.162978968E-4,-1.527163113E-4,3.054326226E-4
2.194718259E0,9.162978968E-4,-1.527163113E-4,3.054326226E-4
2.196955320E0,9.162978968E-4,3.512475174E-3,1.527163084E-3
2.199190610E0,2.138028387E-3,-1.527163113E-4,2.748893574E-3
2.201424375E0,2.138028387E-3,2.290744567E-3,-9.162978968E-4
2.203654234E0,9.162978968E-4,1.069014193E-3,3.054326226E-4
2.205899168E0,3.359758761E-3,2.290744567E-3,-2.138028387E-3
2.208136289E0,2.138028387E-3,1.069014193E-3,3.054326226E-4
2.210375913E0,-2.748893574E-3,1.221730490E-3,-1.069014193E-3
2.212608396E0,-3.054326226E-4,1.221730490E-3,1.527163084E-3
2.214845151E0,-3.054326226E-4,0.000000000E0,3.054326226E-4
2.217080014E0,-3.054326226E-4,1.221730490E-3,-9.162978968E-4
2.219316587E0,9.162978968E-4,-1.527163113E-4,3.054326226E-4
2.221552671E0,-3.054326226E-4,1.221730490E-3,3.054326226E-4
2.223789060E0,-1.527163084E-3,1.221730490E-3,3.054326226E-4
2.226025632E0,9.162978968E-4,1.069014193E-3,1.527163084E-3
2.228259030E0,-2.748893574E-3,0.000000000E0,1.527163113E-4
2.230487607E0,-1.527163084E-3,-2.443460980E-3,-1.069014193E-3
2.232735349E0,3.359758761E-3,3.512475174E-3,3.054326226E-4
2.234970640E0,9.162978968E-4,-1.527163113E-4,-9.162978968E-4
2.237209226E0,2.138028387E-3,2.290744567E-3,-9.162978968E-4
2.239443906E0,2.138028387E-3,-1.527163113E-4,3.054326226E-4
2.241683530E0,-3.054326226E-4,1.221730490E-3,3.054326226E-4
2.243915586E0,-3.054326226E-4,0.000000000E0,1.527163084E-3
2.246151914E0,2.138028387E-3,1.069014193E-3,-9.162978968E-4
2.248384641E0,9.162978968E-4,3.512475174E-3,3.054326226E-4
2.250613462E0,-3.054326226E-4,1.221730490E-3,3.054326226E-4
2.252860288E0,-2.748893574E-3,2.443460980E-3,1.527163113E-4
2.255096616E0,-1.527163084E-3,0.000000000E0,-1.069014193E-3
2.257335874E0,-3.054326226E-4,1.221730490E-3,3.054326226E-4
2.259569150E0,2.138028387E-3,-1.527163113E-4,3.054326226E-4
2.261805662E0,3.359758761E-3,-1.374446787E-3,3.054326226E-4
2.264041685E0,9.162978968E-4,1.069014193E-3,1.527163084E-3
2.266278318E0,9.162978968E-4,2.290744567E-3,3.054326226E-4
2.268515134E0,2.138028387E-3,-1.527163113E-4,3.054326226E-4
2.270747678E0,9.162978968E-4,-1.527163113E-4,-9.162978968E-4
2.272974546E0,-1.527163084E-3,0.000000000E0,1.374446787E-3
2.275222654E0,-1.679879380E-3,-2.443460980E-3,1.527163113E-4
2.277459165E0,-1.527163084E-3,1.221730490E-3,3.054326226E-4
2.279698605E0,9.162978968E-4,-1.527163113E-4,1.527163084E-3
2.281931882E0,-3.054326226E-4,0.000000000E0,-9.162978968E-4
2.284168210E0,9.162978968E-4,1.069014193E-3,3.054326226E-4
2.286405271E0,-3.054326226E-4,1.221730490E-3,-9.162978968E-4
2.288637632E0,9.162978968E-4,-1.374446787E-3,1.527163084E-3
2.290864988E0,9.162978968E-4,1.069014193E-3,3.054326226E-4
2.293112730E0,9.162978968E-4,-1.527163113E-4,3.054326226E-4
2.295349119E0,-3.054326226E-4,0.000000000E0,3.054326226E-4
2.297588620E0,-3.054326226E-4,2.290744567E-3,3.054326226E-4
2.299822019E0,3.359758761E-3,1.069014193E-3,3.054326226E-4
2.302059385E0,2.138028387E-3,-1.374446787E-3,-9.162978968E-4
2.304292478E0,3.359758761E-3,-3.817907767E-3,-2.138028387E-3
2.306516050E0,9.162978968E-4,-2.443460980E-3,-2.138028387E-3
2.308750729E0,-3.054326226E-4,-2.443460980E-3,-9.162978968E-4
2.310987240E0,2.138028387E-3,-1.527163113E-4,3.054326226E-4
2.313242184E0,9.162978968E-4,-1.374446787E-3,-9.162978968E-4
2.315478819E0,7.635815418E-4,-3.665191587E-3,3.054326226E-4
2.317715757E0,9.162978968E-4,-1.527163113E-4,-9.162978968E-4
2.319948240E0,-1.527163084E-3,0.000000000E0,1.527163084E-3
2.322185178E0,-3.054326226E-4,2.290744567E-3,-9.162978968E-4
2.324420347E0,-3.054326226E-4,1.221730490E-3,-9.162978968E-4
2.326656736E0,9.162978968E-4,-1.527163113E-4,-2.138028387E-3
2.328892820E0,-3.054326226E-4,-2.443460980E-3,-9.162978968E-4
2.331129453E0,-3.054326226E-4,-1.221730490E-3,3.054326226E-4
2.333363645E0,-2.748893574E-3,0.000000000E0,1.527163113E-4
2.335590818E0,9.162978968E-4,-1.527163113E-4,1.527163084E-3
2.337827573E0,9.162978968E-4,-1.527163113E-4,1.527163084E-3
2.340075193E0,2.138028387E-3,2.290744567E-3,-9.162978968E-4
2.342312803E0,9.162978968E-4,1.069014193E-3,-9.162978968E-4
2.344549253E0,9.162978968E-4,1.069014193E-3,3.054326226E-4
2.346782652E0,-1.527163084E-3,-1.221730490E-3,1.527163084E-3
2.349018980E0,2.138028387E-3,-1.527163113E-4,-2.138028387E-3
2.351255674E0,-3.054326226E-4,0.000000000E0,-9.162978968E-4
2.353492002E0,-2.748893574E-3,0.000000000E0,-1.069014193E-3
2.355728574E0,9.162978968E-4,-1.527163113E-4,3.054326226E-4
2.357965330E0,-3.054326226E-4,1.221730490E-3,3.054326226E-4
2.360200620E0,9.162978968E-4,-1.527163113E-4,1.527163084E-3
2.362436704E0,-2.748893574E-3,1.221730490E-3,1.374446787E-3
2.364672848E0,-1.527163084E-3,0.000000000E0,3.054326226E-4
2.366906491E0,-3.970623948E-3,-1.221730490E-3,-3.512475174E-3
2.369131040E0,-1.527163084E-3,0.000000000E0,3.054326226E-4
2.371367124E0,-1.527163084E-3,-1.221730490E-3,1.527163084E-3
2.373605344E0,-1.527163084E-3,1.221730490E-3,3.054326226E-4
2.375849973E0,9.162978968E-4,-1.374446787E-3,-9.162978968E-4
2.378090757E0,9.162978968E-4,-1.374446787E-3,3.054326226E-4
2.380319394E0,-1.679879380E-3,-3.665191587E-3,1.374446787E-3
2.382565000E0,-2.748893574E-3,-1.221730490E-3,-1.069014193E-3
2.384799314E0,-3.054326226E-4,0.000000000E0,1.527163084E-3
2.387037961E0,9.162978968E-4,-1.374446787E-3,3.054326226E-4
2.389269345E0,2.138028387E-3,-1.527163113E-4,1.527163084E-3
2.391498105E0,9.162978968E-4,-1.374446787E-3,-9.162978968E-4
2.393742734E0,-1.679879380E-3,-3.665191587E-3,-2.290744567E-3
2.395966001E0,9.162978968E-4,-1.527163113E-4,-9.162978968E-4
2.398204893E0,2.290744567E-3,1.527163113E-4,4.581489484E-4
2.400441770E0,1.069014193E-3,2.596177394E-3,-1.985311974E-3
2.402690916E0,1.069014193E-3,1.374446787E-3,4.581489484E-4
2.404923825E0,1.069014193E-3,-1.069014193E-3,-7.635815418E-4
2.407164609E0,2.290744567E-3,1.527163113E-4,4.581489484E-4
2.409398496E0,2.290744567E-3,-2.290744567E-3,4.581489484E-4
2.411636716E0,1.069014193E-3,-2.138028387E-3,-1.985311974E-3
2.413870786E0,1.069014193E-3,-1.069014193E-3,-1.985311974E-3
2.416106687E0,-2.748893574E-3,-2.138028387E-3,3.054326226E-4
2.418342892E0,-1.527163113E-4,2.596177394E-3,-7.635815418E-4
2.420579099E0,-1.527163113E-4,1.527163084E-3,4.581489484E-4
2.422815977E0,-1.527163113E-4,-9.162978968E-4,-7.635815418E-4
2.425052000E0,-1.527163113E-4,-9.162978968E-4,4.581489484E-4
2.427288633E0,-2.596177394E-3,3.054326226E-4,4.581489484E-4
2.429525327E0,-1.374446787E-3,3.054326226E-4,-7.635815418E-4
2.431760679E0,-1.527163113E-4,-2.138028387E-3,-1.985311974E-3
2.433996824E0,-1.527163113E-4,1.527163084E-3,4.581489484E-4
2.436233091E0,1.069014193E-3,-1.069014193E-3,4.581489484E-4
2.438470517E0,-1.527163084E-3,-2.138028387E-3,-7.635815418E-4
2.440708188E0,-1.527163113E-4,1.527163084E-3,1.679879380E-3
2.442931150E0,1.069014193E-3,1.527163113E-4,4.581489484E-4
2.445179746E0,1.069014193E-3,1.374446787E-3,-7.635815418E-4
2.447409848E0,-1.374446787E-3,2.748893574E-3,-9.162978968E-4
2.449636105E0,-1.527163113E-4,3.054326226E-4,1.679879380E-3
2.451886900E0,1.069014193E-3,1.374446787E-3,-7.635815418E-4
2.454122984E0,-1.527163084E-3,-2.138028387E-3,1.527163084E-3
2.456363706E0,1.069014193E-3,1.527163113E-4,4.581489484E-4
2.458595579E0,-1.527163113E-4,2.596177394E-3,4.581489484E-4
2.460829221E0,-1.527163113E-4,3.054326226E-4,2.901609987E-3
2.463058347E0,1.069014193E-3,2.596177394E-3,4.581489484E-4
2.465305479E0,1.069014193E-3,2.596177394E-3,-7.635815418E-4
2.467539609E0,1.069014193E-3,1.527163113E-4,-7.635815418E-4
2.469773679E0,2.290744567E-3,1.527163113E-4,-7.635815418E-4
2.472012692E0,1.069014193E-3,1.527163113E-4,-7.635815418E-4
2.474249448E0,-1.374446787E-3,3.970623948E-3,4.581489484E-4
2.476487179E0,-1.374446787E-3,2.748893574E-3,-2.138028387E-3
2.478721738E0,-1.527163113E-4,1.527163084E-3,-7.635815418E-4
2.480958494E0,1.069014193E-3,3.817907767E-3,4.581489484E-4
2.483195493E0,-1.527163113E-4,1.527163084E-3,4.581489484E-4
2.485430662E0,2.290744567E-3,1.527163113E-4,4.581489484E-4
2.487663694E0,9.162978968E-4,-3.359758761E-3,3.054326226E-4
2.489890806E0,2.290744567E-3,1.374446787E-3,4.581489484E-4
2.492139463E0,1.069014193E-3,2.596177394E-3,-7.635815418E-4
2.494376035E0,-1.527163113E-4,3.054326226E-4,1.679879380E-3
2.496615109E0,-2.596177394E-3,3.054326226E-4,3.054326226E-4
2.498848691E0,-1.527163113E-4,1.527163084E-3,1.679879380E-3
2.501085569E0,1.069014193E-3,1.527163113E-4,1.679879380E-3
2.503320432E0,3.512475174E-3,1.374446787E-3,1.679879380E-3
2.505553891E0,1.069014193E-3,2.596177394E-3,-7.635815418E-4
2.507779965E0,-1.374446787E-3,2.748893574E-3,-9.162978968E-4
2.510020750E0,1.069014193E-3,1.527163113E-4,4.581489484E-4
2.512265623E0,-2.596177394E-3,3.054326226E-4,3.054326226E-4
2.514504698E0,-1.527163113E-4,1.527163084E-3,4.581489484E-4
2.516738401E0,-1.527163113E-4,1.527163084E-3,-7.635815418E-4
2.518961423E0,-1.374446787E-3,3.970623948E-3,1.679879380E-3
2.521210691E0,-1.374446787E-3,1.527163084E-3,4.581489484E-4
2.523446469E0,-1.374446787E-3,1.527163084E-3,-1.985311974E-3
2.525686582E0,-1.374446787E-3,3.970623948E-3,4.581489484E-4
2.527919370E0,1.069014193E-3,-1.069014193E-3,4.581489484E-4
2.530155576E0,-1.374446787E-3,-9.162978968E-4,1.679879380E-3
2.532392087E0,1.069014193E-3,-1.069014193E-3,4.581489484E-4
2.534625730E0,-1.527163113E-4,2.596177394E-3,4.581489484E-4
2.536854245E0,-1.527163113E-4,-9.162978968E-4,-7.635815418E-4
2.539102476E0,-1.527163113E-4,3.054326226E-4,4.581489484E-4
2.541336851E0,1.069014193E-3,2.596177394E-3,4.581489484E-4
2.543575864E0,-1.374446787E-3,3.054326226E-4,-7.635815418E-4
2.545808896E0,1.069014193E-3,1.374446787E-3,-7.635815418E-4
2.548045896E0,-1.527163113E-4,2.596177394E-3,4.581489484E-4
2.550281980E0,-1.374446787E-3,1.527163084E-3,2.901609987E-3
2.552518552E0,1.069014193E-3,1.374446787E-3,-1.985311974E-3
2.554755308E0,-1.527163113E-4,3.054326226E-4,4.581489484E-4
2.556990720E0,-3.054326226E-4,-2.138028387E-3,4.581489484E-4
2.559227048E0,-1.527163113E-4,3.054326226E-4,-7.635815418E-4
2.561463133E0,-1.527163113E-4,5.039638374E-3,-7.635815418E-4
2.563699522E0,-1.527163113E-4,3.817907767E-3,4.581489484E-4
2.565936033E0,-1.527163113E-4,-9.162978968E-4,-7.635815418E-4
2.568169065E0,-1.374446787E-3,1.527163084E-3,1.679879380E-3
2.570393491E0,-1.527163113E-4,1.527163084E-3,1.679879380E-3
2.572632078E0,-1.374446787E-3,1.527163084E-3,1.679879380E-3
2.574875181E0,-1.221730490E-3,6.261368748E-3,4.581489484E-4
2.577119992E0,-2.596177394E-3,3.970623948E-3,4.581489484E-4
2.579356198E0,-2.596177394E-3,3.054326226E-4,2.901609987E-3
2.581590695E0,-1.527163113E-4,1.527163084E-3,4.581489484E-4
2.583825681E0,1.069014193E-3,-1.069014193E-3,1.679879380E-3
2.586062253E0,-1.527163113E-4,-9.162978968E-4,-7.635815418E-4
2.588296994E0,1.069014193E-3,2.596177394E-3,4.581489484E-4
2.590524168E0,-1.527163113E-4,1.527163084E-3,1.679879380E-3
2.592770689E0,3.512475174E-3,1.527163113E-4,-7.635815418E-4
2.595006468E0,1.069014193E-3,1.527163113E-4,4.581489484E-4
2.597245725E0,-1.527163113E-4,-9.162978968E-4,1.679879380E-3
2.599476438E0,1.069014193E-3,1.374446787E-3,-7.635815418E-4
2.601701230E0,2.290744567E-3,1.527163113E-4,-7.635815418E-4
2.603942319E0,-2.596177394E-3,3.054326226E-4,3.054326226E-4
2.606188230E0,2.290744567E-3,1.527163113E-4,4.581489484E-4
2.608428586E0,2.290744567E-3,1.527163113E-4,1.679879380E-3
2.610663266E0,1.069014193E-3,1.374446787E-3,4.581489484E-4
2.612897031E0,2.290744567E-3,1.527163113E-4,-7.635815418E-4
2.615132992E0,-1.527163084E-3,-2.138028387E-3,-9.162978968E-4
2.617369382E0,-3.817907767E-3,-9.162978968E-4,-2.138028387E-3
2.619605955E0,-1.374446787E-3,-9.162978968E-4,-9.162978968E-4
2.621842039E0,-1.374446787E-3,3.054326226E-4,4.581489484E-4
2.624078611E0,1.069014193E-3,-1.069014193E-3,-7.635815418E-4
2.626315427E0,2.290744567E-3,1.374446787E-3,-1.985311974E-3
2.628551023E0,1.069014193E-3,2.596177394E-3,4.581489484E-4
2.630787107E0,1.069014193E-3,2.596177394E-3,-7.635815418E-4
2.633023191E0,-2.596177394E-3,3.970623948E-3,4.581489484E-4
2.635259519E0,-2.596177394E-3,1.527163084E-3,-9.162978968E-4
2.637493771E0,1.069014193E-3,1.527163113E-4,4.581489484E-4
2.639719785E0,-1.527163113E-4,1.527163084E-3,-1.985311974E-3
2.641956296E0,-2.748893574E-3,-2.138028387E-3,-9.162978968E-4
2.644205503E0,-1.527163113E-4,1.527163084E-3,-7.635815418E-4
2.646443174E0,1.069014193E-3,1.374446787E-3,4.581489484E-4
2.648680052E0,-1.527163113E-4,3.054326226E-4,4.581489484E-4
2.650913084E0,2.290744567E-3,-1.069014193E-3,4.581489484E-4
2.653149656E0,-3.054326226E-4,-2.138028387E-3,4.581489484E-4
2.655385984E0,-1.374446787E-3,3.054326226E-4,-9.162978968E-4
2.657622373E0,3.512475174E-3,-2.290744567E-3,-7.635815418E-4
2.659859861E0,2.138028387E-3,-3.512475174E-3,4.581489484E-4
2.662095640E0,1.069014193E-3,1.374446787E-3,-7.635815418E-4
2.664330747E0,1.069014193E-3,-1.069014193E-3,4.581489484E-4
2.666564023E0,-1.527163113E-4,2.596177394E-3,4.581489484E-4
2.668789976E0,-1.527163084E-3,-2.138028387E-3,3.054326226E-4
2.671024839E0,-3.054326226E-4,-3.359758761E-3,1.527163084E-3
2.673263975E0,-1.527163113E-4,3.817907767E-3,-7.635815418E-4
2.675514768E0,-1.374446787E-3,1.527163084E-3,4.581489484E-4
2.677751706E0,-1.374446787E-3,-9.162978968E-4,-9.162978968E-4
2.679988583E0,1.069014193E-3,-1.069014193E-3,-7.635815418E-4
2.682220884E0,-1.374446787E-3,1.527163084E-3,4.581489484E-4
2.684456968E0,-1.374446787E-3,1.527163084E-3,-7.635815418E-4
2.686693052E0,-1.374446787E-3,1.527163084E-3,4.581489484E-4
2.688929380E0,-1.527163113E-4,-9.162978968E-4,4.581489484E-4
2.691165769E0,-1.527163113E-4,3.054326226E-4,-1.985311974E-3
2.693402097E0,-1.527163084E-3,-3.359758761E-3,-9.162978968E-4
2.695638730E0,-1.527163113E-4,-9.162978968E-4,-7.635815418E-4
2.697875730E0,-1.527163113E-4,3.054326226E-4,-1.985311974E-3
2.700110776E0,1.069014193E-3,1.374446787E-3,-7.635815418E-4
2.702346860E0,-1.374446787E-3,3.054326226E-4,4.581489484E-4
2.704579466E0,-1.527163113E-4,1.527163084E-3,4.581489484E-4
2.706805601E0,1.069014193E-3,1.527163113E-4,-1.985311974E-3
2.709055662E0,2.290744567E-3,1.374446787E-3,4.581489484E-4
2.711291990E0,1.069014193E-3,1.527163113E-4,4.581489484E-4
2.713532041E0,1.069014193E-3,1.527163113E-4,4.581489484E-4
2.715765684E0,2.290744567E-3,1.374446787E-3,-7.635815418E-4
2.718000974E0,-1.374446787E-3,1.527163084E-3,1.679879380E-3
2.720237119E0,2.290744567E-3,1.527163113E-4,1.679879380E-3
2.722473324E0,1.069014193E-3,2.596177394E-3,4.581489484E-4
2.724709531E0,2.290744567E-3,1.527163113E-4,-7.635815418E-4
2.726946287E0,-1.527163113E-4,1.527163084E-3,-7.635815418E-4
2.729182371E0,1.069014193E-3,-1.069014193E-3,4.581489484E-4
2.731419919E0,-1.374446787E-3,-9.162978968E-4,1.527163084E-3
2.733654050E0,-1.374446787E-3,2.748893574E-3,4.581489484E-4
2.735885435E0,-3.817907767E-3,1.527163084E-3,3.054326226E-4
2.738124021E0,-2.596177394E-3,1.527163084E-3,-9.162978968E-4
2.740352781E0,-1.527163113E-4,1.527163084E-3,-7.635815418E-4
2.742600949E0,-1.527163113E-4,1.527163084E-3,4.581489484E-4
2.744835935E0,1.069014193E-3,1.527163113E-4,-3.207042580E-3
2.747074643E0,1.069014193E-3,1.527163113E-4,-1.985311974E-3
2.749308896E0,-1.374446787E-3,1.527163084E-3,-3.207042580E-3
2.751545896E0,-1.527163113E-4,3.054326226E-4,-7.635815418E-4
2.753778013E0,1.069014193E-3,1.527163113E-4,4.581489484E-4
2.756005064E0,1.069014193E-3,-1.069014193E-3,4.581489484E-4
2.758250181E0,-1.527163084E-3,-3.359758761E-3,3.054326226E-4
2.760478025E0,-1.527163113E-4,2.596177394E-3,-7.635815418E-4
2.762729062E0,-1.374446787E-3,1.527163084E-3,1.679879380E-3
2.764962156E0,-1.527163113E-4,2.596177394E-3,1.679879380E-3
2.767201597E0,-2.596177394E-3,3.054326226E-4,3.054326226E-4
2.769432554E0,-1.374446787E-3,3.054326226E-4,-9.162978968E-4
2.771658383E0,-3.817907767E-3,-9.162978968E-4,-9.162978968E-4
2.773903989E0,-1.527163113E-4,-9.162978968E-4,-1.985311974E-3
2.776143063E0,-1.527163113E-4,3.054326226E-4,4.581489484E-4
2.778382504E0,-1.527163113E-4,3.054326226E-4,4.581489484E-4
2.780616452E0,-1.527163084E-3,-3.359758761E-3,1.527163084E-3
2.782848996E0,9.162978968E-4,-3.359758761E-3,-7.635815418E-4
2.785076414E0,1.069014193E-3,-1.069014193E-3,-7.635815418E-4
2.787325742E0,-1.527163113E-4,3.054326226E-4,4.581489484E-4
2.789561033E0,-1.527163113E-4,3.054326226E-4,1.679879380E-3
2.791800168E0,-1.527163113E-4,-9.162978968E-4,-7.635815418E-4
2.794033140E0,1.069014193E-3,1.374446787E-3,-7.635815418E-4
2.796269529E0,1.069014193E-3,1.527163113E-4,-3.207042580E-3
2.798506040E0,-1.527163113E-4,-2.138028387E-3,-7.635815418E-4
2.800739133E0,-1.374446787E-3,-9.162978968E-4,1.679879380E-3
2.802966733E0,-1.527163084E-3,-2.138028387E-3,3.054326226E-4
2.805212339E0,-1.527163113E-4,-9.162978968E-4,4.581489484E-4
2.807450253E0,-1.527163113E-4,-9.162978968E-4,4.581489484E-4
2.809687131E0,-1.527163084E-3,-4.581489135E-3,3.054326226E-4
2.811924131E0,2.290744567E-3,-2.290744567E-3,-7.635815418E-4
2.814159666E0,2.290744567E-3,1.527163113E-4,1.679879380E-3
2.816396726E0,-1.374446787E-3,3.054326226E-4,4.581489484E-4
2.818632261E0,-2.596177394E-3,1.527163084E-3,-2.138028387E-3
2.820868650E0,2.290744567E-3,-2.290744567E-3,-7.635815418E-4
2.823105711E0,-1.527163084E-3,-4.581489135E-3,-2.138028387E-3
2.825341001E0,-1.527163084E-3,-5.803219974E-3,-9.162978968E-4
2.827574155E0,-1.527163113E-4,-2.138028387E-3,-2.138028387E-3
2.829801266E0,1.069014193E-3,1.527163113E-4,-7.635815418E-4
2.832049802E0,-1.527163113E-4,3.054326226E-4,4.581489484E-4
2.834286130E0,1.069014193E-3,1.527163113E-4,4.581489484E-4
2.836525205E0,-1.527163084E-3,-3.359758761E-3,3.054326226E-4
2.838755918E0,-2.748893574E-3,-9.162978968E-4,1.527163084E-3
2.840984312E0,-1.527163113E-4,-2.138028387E-3,-7.635815418E-4
2.843230894E0,-1.527163113E-4,-2.138028387E-3,-2.138028387E-3
2.845467039E0,3.512475174E-3,1.527163113E-4,4.581489484E-4
2.847703183E0,1.069014193E-3,2.596177394E-3,-1.985311974E-3
2.849927671E0,-1.527163113E-4,-9.162978968E-4,1.679879380E-3
2.852175840E0,-1.374446787E-3,1.527163084E-3,1.679879380E-3
2.854412351E0,1.069014193E-3,2.596177394E-3,-7.635815418E-4
2.856651914E0,1.069014193E-3,1.527163113E-4,4.581489484E-4
2.858885740E0,3.512475174E-3,-2.290744567E-3,4.581489484E-4
2.861120786E0,-2.596177394E-3,-9.162978968E-4,-9.162978968E-4
2.863357175E0,-2.596177394E-3,-9.162978968E-4,-9.162978968E-4
2.865590513E0,-1.527163084E-3,-3.359758761E-3,1.527163084E-3
2.867815000E0,9.162978968E-4,-2.138028387E-3,1.679879380E-3
2.870051511E0,-1.527163113E-4,-9.162978968E-4,-7.635815418E-4
2.872287778E0,-1.527163084E-3,-2.138028387E-3,-9.162978968E-4
2.874531065E0,-1.527163113E-4,-9.162978968E-4,4.581489484E-4
2.876778745E0,1.069014193E-3,1.527163113E-4,4.581489484E-4
2.879013852E0,-1.527163113E-4,3.054326226E-4,-7.635815418E-4
2.881249753E0,-6.261368748E-3,1.527163084E-3,1.527163084E-3
2.883483273E0,-1.527163113E-4,3.054326226E-4,4.581489484E-4
2.885719480E0,-1.527163113E-4,3.054326226E-4,-7.635815418E-4
2.887956113E0,-1.527163113E-4,-9.162978968E-4,-7.635815418E-4
2.890192380E0,1.069014193E-3,-2.138028387E-3,-1.985311974E-3
2.892426145E0,-1.527163113E-4,3.054326226E-4,-7.635815418E-4
2.894651365E0,2.290744567E-3,1.527163113E-4,4.581489484E-4
2.896889463E0,1.069014193E-3,1.527163113E-4,4.581489484E-4
2.899134702E0,2.290744567E-3,2.596177394E-3,-7.635815418E-4
2.901364438E0,2.290744567E-3,-1.069014193E-3,-7.635815418E-4
2.903613096E0,-1.527163113E-4,3.054326226E-4,4.581489484E-4
2.905847227E0,1.069014193E-3,1.527163113E-4,-1.985311974E-3
2.908084592E0,2.290744567E-3,1.527163113E-4,-1.985311974E-3
2.910317380E0,-1.527163113E-4,-9.162978968E-4,-7.635815418E-4
2.912555539E0,1.069014193E-3,-1.069014193E-3,4.581489484E-4
2.914791074E0,-3.054326226E-4,-2.138028387E-3,4.581489484E-4
2.917027707E0,1.069014193E-3,1.374446787E-3,4.581489484E-4
2.919263365E0,-1.374446787E-3,2.748893574E-3,4.581489484E-4
2.921499754E0,-1.527163113E-4,2.596177394E-3,-7.635815418E-4
2.923736082E0,1.069014193E-3,1.374446787E-3,4.581489484E-4
2.925972410E0,1.069014193E-3,-1.069014193E-3,4.581489484E-4
2.928206052E0,-1.527163113E-4,3.054326226E-4,4.581489484E-4
2.930434080E0,-1.527163113E-4,-9.162978968E-4,-7.635815418E-4
2.932678891E0,-1.374446787E-3,3.054326226E-4,-7.635815418E-4
2.934906614E0,1.069014193E-3,1.374446787E-3,-1.985311974E-3
2.937149167E0,-1.374446787E-3,5.192354787E-3,-7.635815418E-4
2.939389890E0,-2.596177394E-3,2.748893574E-3,2.901609987E-3
2.941628415E0,1.069014193E-3,2.596177394E-3,2.901609987E-3
2.943864377E0,-1.374446787E-3,3.054326226E-4,1.679879380E-3
2.946100095E0,1.069014193E-3,-1.069014193E-3,-7.635815418E-4
2.948332944E0,-2.596177394E-3,2.748893574E-3,4.581489484E-4
2.950559324E0,-1.374446787E-3,3.054326226E-4,4.581489484E-4
2.952807066E0,1.069014193E-3,5.039638374E-3,4.581489484E-4
2.955043394E0,-1.527163113E-4,-9.162978968E-4,-7.635815418E-4
2.957282712E0,9.162978968E-4,-3.359758761E-3,4.581489484E-4
2.959516111E0,-1.374446787E-3,2.748893574E-3,4.581489484E-4
2.961752439E0,-2.596177394E-3,2.748893574E-3,-7.635815418E-4
2.963989011E0,-1.374446787E-3,2.748893574E-3,4.581489484E-4
2.966225828E0,2.290744567E-3,-2.290744567E-3,-7.635815418E-4
2.968461179E0,1.069014193E-3,1.527163113E-4,2.901609987E-3
2.970695737E0,1.069014193E-3,2.596177394E-3,4.581489484E-4
2.972926449E0,-1.374446787E-3,3.970623948E-3,4.581489484E-4
2.975169675E0,1.069014193E-3,1.374446787E-3,-7.635815418E-4
2.977406187E0,-3.054326226E-4,-3.359758761E-3,-7.635815418E-4
2.979644041E0,-1.374446787E-3,3.054326226E-4,-1.985311974E-3
2.981878904E0,1.069014193E-3,1.527163113E-4,-7.635815418E-4
2.984115659E0,-1.374446787E-3,-9.162978968E-4,-7.635815418E-4
2.986351011E0,-1.374446787E-3,3.054326226E-4,-7.635815418E-4
2.988587156E0,-1.374446787E-3,3.054326226E-4,4.581489484E-4
2.990823484E0,2.138028387E-3,-4.734205548E-3,-7.635815418E-4
2.993059812E0,1.069014193E-3,2.596177394E-3,-1.985311974E-3
2.995296201E0,-1.527163113E-4,3.054326226E-4,-7.635815418E-4
2.997532468E0,2.290744567E-3,1.374446787E-3,-7.635815418E-4
2.999764645E0,1.069014193E-3,-2.138028387E-3,-7.635815418E-4
3.001985227E0,1.069014193E-3,-2.138028387E-3,-7.635815418E-4
3.004229002E0,1.069014193E-3,1.527163113E-4,4.581489484E-4
3.006477537E0,2.138028387E-3,-3.512475174E-3,1.679879380E-3
3.008718076E0,-3.054326226E-4,-2.138028387E-3,4.581489484E-4
3.010953244E0,2.290744567E-3,2.596177394E-3,-7.635815418E-4
3.013186155E0,-1.374446787E-3,3.054326226E-4,4.581489484E-4
3.015422361E0,2.290744567E-3,1.374446787E-3,4.581489484E-4
3.017660032E0,-1.527163113E-4,1.527163084E-3,-7.635815418E-4
3.019895689E0,-1.374446787E-3,2.748893574E-3,-7.635815418E-4
3.022131162E0,2.290744567E-3,1.374446787E-3,-7.635815418E-4
3.024367123E0,-1.374446787E-3,-9.162978968E-4,3.054326226E-4
3.026603512E0,-1.527163113E-4,-9.162978968E-4,4.581489484E-4
3.028839902E0,-3.054326226E-4,-2.138028387E-3,4.581489484E-4
3.031073484E0,2.138028387E-3,-3.512475174E-3,4.581489484E-4
3.033297849E0,1.069014193E-3,-1.069014193E-3,-7.635815418E-4
3.035534482E0,1.069014193E-3,1.527163113E-4,4.581489484E-4
3.037770750E0,2.290744567E-3,-2.290744567E-3,-7.635815418E-4
3.040006773E0,2.290744567E-3,1.527163113E-4,-7.635815418E-4
3.042245603E0,-1.527163084E-3,-2.138028387E-3,3.054326226E-4
3.044481992E0,-2.596177394E-3,1.527163084E-3,3.054326226E-4
3.046719602E0,-1.527163113E-4,3.054326226E-4,4.581489484E-4
3.048955381E0,1.069014193E-3,1.527163113E-4,4.581489484E-4
3.051190855E0,-1.527163113E-4,3.054326226E-4,1.679879380E-3
3.053427122E0,1.069014193E-3,1.527163113E-4,4.581489484E-4
3.055664060E0,-1.374446787E-3,-9.162978968E-4,3.054326226E-4
3.057899351E0,-1.527163113E-4,-9.162978968E-4,4.581489484E-4
3.060136045E0,-1.374446787E-3,3.054326226E-4,1.679879380E-3
3.062375059E0,-1.374446787E-3,-9.162978968E-4,3.054326226E-4
3.064616453E0,-2.596177394E-3,-9.162978968E-4,3.054326226E-4
3.066844541E0,-1.374446787E-3,1.527163084E-3,-1.985311974E-3
3.069080746E0,2.290744567E-3,1.527163113E-4,-7.635815418E-4
3.071315488E0,1.069014193E-3,-1.069014193E-3,-7.635815418E-4
3.073555539E0,-1.527163113E-4,1.527163084E-3,4.581489484E-4
3.075792905E0,-1.374446787E-3,-9.162978968E-4,-9.162978968E-4
3.078030027E0,-1.374446787E-3,-9.162978968E-4,1.679879380E-3
3.080263730E0,1.069014193E-3,-1.069014193E-3,1.679879380E-3
3.082501645E0,1.069014193E-3,-1.069014193E-3,4.581489484E-4
3.084733762E0,1.069014193E-3,-1.069014193E-3,4.581489484E-4
3.086970640E0,-3.054326226E-4,-3.359758761E-3,-7.635815418E-4
3.089208371E0,2.290744567E-3,-2.290744567E-3,1.679879380E-3
3.091444944E0,3.512475174E-3,1.527163113E-4,-7.635815418E-4
3.093680601E0,-1.527163113E-4,-9.162978968E-4,-1.985311974E-3
3.095915952E0,-1.374446787E-3,2.748893574E-3,-7.635815418E-4
3.098152341E0,2.290744567E-3,1.527163113E-4,4.581489484E-4
3.100387937E0,2.290744567E-3,1.527163113E-4,1.679879380E-3
3.102625486E0,1.069014193E-3,2.596177394E-3,4.581489484E-4
3.104861204E0,1.069014193E-3,1.527163113E-4,4.581489484E-4
3.107097898E0,1.069014193E-3,-2.138028387E-3,-1.985311974E-3
3.109334837E0,1.069014193E-3,1.527163113E-4,-7.635815418E-4
3.111572873E0,-1.527163113E-4,1.527163084E-3,-7.635815418E-4
3.113820493E0,1.069014193E-3,1.374446787E-3,4.581489484E-4
3.116056394E0,1.069014193E-3,1.374446787E-3,1.679879380E-3
3.118289610E0,-1.374446787E-3,1.527163084E-3,1.679879380E-3
3.120514341E0,-1.527163113E-4,3.054326226E-4,4.581489484E-4
3.122762388E0,1.069014193E-3,1.527163113E-4,-7.635815418E-4
3.124999082E0,-1.527163113E-4,-9.162978968E-4,-7.635815418E-4
3.127239072E0,-1.527163113E-4,3.817907767E-3,4.581489484E-4
3.129471494E0,-1.527163113E-4,3.817907767E-3,4.581489484E-4
3.131707761E0,1.069014193E-3,2.596177394E-3,-7.635815418E-4
3.133943539E0,-1.527163113E-4,2.596177394E-3,4.581489484E-4
3.136177426E0,1.069014193E-3,1.374446787E-3,-7.635815418E-4
3.138403379E0,-3.054326226E-4,-3.359758761E-3,-7.635815418E-4
3.140642576E0,-1.527163113E-4,1.527163084E-3,4.581489484E-4
3.142897947E0,-1.374446787E-3,3.970623948E-3,-7.635815418E-4
3.145128415E0,1.069014193E-3,1.374446787E-3,-7.635815418E-4
3.147361692E0,-1.527163113E-4,3.817907767E-3,4.581489484E-4
3.149584653E0,-1.527163113E-4,5.039638374E-3,-7.635815418E-4
3.151833494E0,-1.374446787E-3,2.748893574E-3,-7.635815418E-4
3.154070127E0,-1.374446787E-3,2.748893574E-3,4.581489484E-4
3.156309323E0,-1.527163113E-4,5.039638374E-3,4.581489484E-4
3.158542966E0,-1.527163113E-4,2.596177394E-3,-7.635815418E-4
3.160779783E0,1.069014193E-3,1.374446787E-3,4.581489484E-4
3.163015134E0,-1.527163113E-4,3.054326226E-4,1.679879380E-3
3.165251585E0,2.290744567E-3,1.374446787E-3,1.679879380E-3
3.167484067E0,-1.527163113E-4,1.527163084E-3,1.679879380E-3
3.169708921E0,1.221730490E-3,5.039638374E-3,-7.635815418E-4
3.171948118E0,-1.374446787E-3,2.748893574E-3,1.679879380E-3
3.174196348E0,-0.000000000E0,5.039638374E-3,-7.635815418E-4
3.176435605E0,-0.000000000E0,5.039638374E-3,-1.985311974E-3
3.178672117E0,-1.527163113E-4,3.817907767E-3,-7.635815418E-4
3.180906004E0,1.069014193E-3,-1.069014193E-3,-7.635815418E-4
3.183141294E0,-1.527163113E-4,1.527163084E-3,-7.635815418E-4
3.185377439E0,-1.374446787E-3,3.054326226E-4,4.581489484E-4
3.187610959E0,-1.374446787E-3,3.970623948E-3,1.679879380E-3
3.189838865E0,1.069014193E-3,3.817907767E-3,1.679879380E-3
3.192086484E0,-1.374446787E-3,5.192354787E-3,-7.635815418E-4
3.194322691E0,2.290744567E-3,3.817907767E-3,1.679879380E-3
3.196561826E0,2.290744567E-3,1.527163113E-4,4.581489484E-4
3.198795835E0,-1.374446787E-3,2.748893574E-3,-7.635815418E-4
3.201031187E0,-1.527163113E-4,1.527163084E-3,1.679879380E-3
3.203267392E0,-1.374446787E-3,3.054326226E-4,1.679879380E-3
3.205502927E0,-1.374446787E-3,1.527163084E-3,4.581489484E-4
3.207739988E0,-1.527163113E-4,-9.162978968E-4,4.581489484E-4
3.209976316E0,-1.374446787E-3,2.748893574E-3,-7.635815418E-4
3.212212827E0,-1.527163113E-4,1.527163084E-3,-7.635815418E-4
3.214449216E0,-1.527163113E-4,3.054326226E-4,-7.635815418E-4
3.216685972E0,-1.527163113E-4,2.596177394E-3,1.679879380E-3
3.218921079E0,-1.374446787E-3,1.527163084E-3,1.679879380E-3
3.221157468E0,-1.527163113E-4,-9.162978968E-4,1.679879380E-3
3.223393735E0,-1.374446787E-3,2.748893574E-3,4.581489484E-4
3.225629941E0,-1.527163113E-4,1.527163084E-3,-1.985311974E-3
3.227866453E0,-1.527163113E-4,3.054326226E-4,-7.635815418E-4
3.230102781E0,-1.527163113E-4,3.054326226E-4,-7.635815418E-4
3.232339109E0,-1.527163113E-4,-2.138028387E-3,-7.635815418E-4
3.234569212E0,-3.054326226E-4,-4.581489135E-3,-3.359758761E-3
3.236804197E0,-2.748893574E-3,-3.359758761E-3,3.054326226E-4
3.239047238E0,1.069014193E-3,1.527163113E-4,4.581489484E-4
3.241284665E0,1.069014193E-3,1.527163113E-4,-7.635815418E-4
3.243521787E0,-3.970623948E-3,-2.138028387E-3,-9.162978968E-4
3.245756345E0,-2.748893574E-3,-2.138028387E-3,-9.162978968E-4
3.247992734E0,-1.527163084E-3,-3.359758761E-3,-9.162978968E-4
3.250229307E0,-1.527163113E-4,3.054326226E-4,-1.985311974E-3
3.252463315E0,1.069014193E-3,2.596177394E-3,-7.635815418E-4
3.254689390E0,4.734205548E-3,1.527163113E-4,-7.635815418E-4
3.256937498E0,1.069014193E-3,1.527163113E-4,4.581489484E-4
3.259173765E0,-1.527163113E-4,2.596177394E-3,4.581489484E-4
3.261413144E0,1.069014193E-3,1.527163113E-4,-7.635815418E-4
3.263646543E0,1.069014193E-3,1.527163113E-4,-1.985311974E-3
3.265882810E0,-1.527163113E-4,-9.162978968E-4,-7.635815418E-4
3.268118588E0,-1.527163113E-4,3.054326226E-4,1.679879380E-3
3.270350400E0,1.069014193E-3,-1.069014193E-3,-7.635815418E-4
3.272580991E0,-3.054326226E-4,-2.138028387E-3,4.581489484E-4
3.274827573E0,-1.527163113E-4,3.054326226E-4,-7.635815418E-4
3.277064450E0,-1.527163113E-4,1.527163084E-3,4.581489484E-4
3.279302670E0,1.069014193E-3,-1.069014193E-3,2.901609987E-3
3.281533323E0,-1.374446787E-3,3.054326226E-4,4.581489484E-4
3.283759519E0,-1.527163084E-3,-2.138028387E-3,1.679879380E-3
3.286009275E0,-3.054326226E-4,-2.138028387E-3,1.679879380E-3
3.288243100E0,-3.054326226E-4,-2.138028387E-3,4.581489484E-4
3.290473020E0,-3.054326226E-4,-3.359758761E-3,1.679879380E-3
3.292717771E0,-1.527163084E-3,-2.138028387E-3,1.679879380E-3
3.294953794E0,9.162978968E-4,-3.359758761E-3,-7.635815418E-4
3.297192868E0,1.069014193E-3,-1.069014193E-3,4.581489484E-4
3.299423520E0,1.069014193E-3,1.527163113E-4,-7.635815418E-4
3.301648069E0,2.290744567E-3,-2.290744567E-3,-7.635815418E-4
3.303888303E0,1.069014193E-3,1.374446787E-3,-7.635815418E-4
3.306136472E0,-1.527163113E-4,3.054326226E-4,1.679879380E-3
3.308371519E0,2.290744567E-3,-2.290744567E-3,4.581489484E-4
3.310598447E0,-1.527163113E-4,-2.138028387E-3,-9.162978968E-4
3.312843626E0,1.069014193E-3,1.527163113E-4,1.679879380E-3
3.315080076E0,-1.527163113E-4,-9.162978968E-4,4.581489484E-4
3.317319638E0,1.069014193E-3,-1.069014193E-3,2.901609987E-3
3.319552671E0,-1.374446787E-3,-9.162978968E-4,3.054326226E-4
3.321789060E0,-1.374446787E-3,1.527163084E-3,4.581489484E-4
3.324026060E0,-1.527163113E-4,-9.162978968E-4,4.581489484E-4
3.326261411E0,2.138028387E-3,-5.803219974E-3,4.581489484E-4
3.328497617E0,-1.527163113E-4,2.596177394E-3,4.581489484E-4
3.330733884E0,-1.374446787E-3,2.748893574E-3,4.581489484E-4
3.332970212E0,-1.527163113E-4,-9.162978968E-4,4.581489484E-4
3.335206602E0,-1.527163113E-4,-9.162978968E-4,4.581489484E-4
3.337438718E0,3.359758761E-3,-3.512475174E-3,1.679879380E-3
3.339661862E0,-1.527163113E-4,3.054326226E-4,1.679879380E-3
3.341912351E0,-1.527163113E-4,-9.162978968E-4,1.679879380E-3
3.344151548E0,-1.527163113E-4,5.039638374E-3,1.679879380E-3
3.346391843E0,-1.527163113E-4,3.054326226E-4,-7.635815418E-4
3.348624997E0,-1.527163084E-3,-9.162978968E-4,2.748893574E-3
3.350860349E0,-1.374446787E-3,1.527163084E-3,-7.635815418E-4
3.353096677E0,-1.374446787E-3,-9.162978968E-4,-9.162978968E-4
3.355332700E0,-1.527163113E-4,3.054326226E-4,1.679879380E-3
3.357569272E0,2.290744567E-3,1.527163113E-4,-1.985311974E-3
3.359806089E0,-1.527163113E-4,-9.162978968E-4,-1.985311974E-3
3.362041441E0,-1.374446787E-3,1.527163084E-3,4.581489484E-4
3.364274656E0,2.290744567E-3,-1.069014193E-3,-7.635815418E-4
3.366499265E0,9.162978968E-4,-3.359758761E-3,1.679879380E-3
3.368735471E0,2.290744567E-3,1.374446787E-3,1.679879380E-3
3.370974424E0,-1.527163113E-4,2.596177394E-3,4.581489484E-4
3.373226072E0,2.290744567E-3,-1.069014193E-3,4.581489484E-4
3.375463377E0,3.359758761E-3,-3.512475174E-3,1.679879380E-3
3.377699277E0,3.512475174E-3,-1.069014193E-3,4.581489484E-4
3.379931333E0,-1.527163084E-3,-2.138028387E-3,3.054326226E-4
3.382167416E0,1.069014193E-3,-1.069014193E-3,-7.635815418E-4
3.384403744E0,2.290744567E-3,-1.069014193E-3,1.679879380E-3
3.386640134E0,2.290744567E-3,3.817907767E-3,1.679879380E-3
3.388876462E0,2.290744567E-3,1.527163113E-4,4.581489484E-4
3.391112791E0,1.069014193E-3,2.596177394E-3,-7.635815418E-4
3.393349363E0,2.290744567E-3,1.527163113E-4,4.581489484E-4
3.395586179E0,-1.527163113E-4,3.054326226E-4,1.679879380E-3
3.397821470E0,-3.054326226E-4,-4.581489135E-3,3.054326226E-4
3.400057554E0,9.162978968E-4,-4.581489135E-3,-9.162978968E-4
3.402293638E0,2.290744567E-3,-3.512475174E-3,-7.635815418E-4
3.404528257E0,9.162978968E-4,-3.359758761E-3,4.581489484E-4
3.406759519E0,-1.527163084E-3,-2.138028387E-3,1.527163084E-3
3.408999753E0,-1.374446787E-3,-9.162978968E-4,1.527163084E-3
3.411227659E0,-2.596177394E-3,-9.162978968E-4,-9.162978968E-4
3.413478330E0,-1.527163084E-3,-3.359758761E-3,-3.359758761E-3
3.415711668E0,-1.374446787E-3,3.054326226E-4,4.581489484E-4
3.417950742E0,-1.374446787E-3,1.527163084E-3,-7.635815418E-4
3.420183958E0,1.069014193E-3,-2.138028387E-3,-1.985311974E-3
3.422420103E0,-1.527163113E-4,-2.138028387E-3,-9.162978968E-4
3.424656492E0,-1.374446787E-3,-9.162978968E-4,-2.138028387E-3
3.426892759E0,3.512475174E-3,2.596177394E-3,4.581489484E-4
3.429129453E0,-1.527163113E-4,1.527163084E-3,-7.635815418E-4
3.431366392E0,-1.527163113E-4,3.054326226E-4,-7.635815418E-4
3.433601255E0,-1.527163113E-4,1.527163084E-3,-7.635815418E-4
3.435837583E0,1.069014193E-3,-1.069014193E-3,4.581489484E-4
3.438075314E0,3.512475174E-3,-2.290744567E-3,4.581489484E-4
3.440316953E0,9.162978968E-4,-3.359758761E-3,1.679879380E-3
3.442546690E0,-3.054326226E-4,-4.581489135E-3,1.527163084E-3
3.444783323E0,-1.527163084E-3,-3.359758761E-3,-9.162978968E-4
3.447019101E0,-2.748893574E-3,-3.359758761E-3,3.054326226E-4
3.449256284E0,-1.527163084E-3,-2.138028387E-3,1.527163084E-3
3.451491392E0,-1.527163113E-4,-2.138028387E-3,-7.635815418E-4
3.453727415E0,9.162978968E-4,-4.581489135E-3,2.901609987E-3
3.455963804E0,-2.748893574E-3,-2.138028387E-3,3.054326226E-4
3.458197263E0,-1.527163113E-4,-9.162978968E-4,1.679879380E-3
3.460424802E0,1.069014193E-3,1.527163113E-4,1.679879380E-3
3.462672788E0,-1.374446787E-3,3.054326226E-4,4.581489484E-4
3.464909177E0,1.069014193E-3,-2.138028387E-3,-7.635815418E-4
3.467149167E0,1.069014193E-3,-2.138028387E-3,4.581489484E-4
3.469381650E0,-3.054326226E-4,-2.138028387E-3,1.679879380E-3
3.471618162E0,-1.374446787E-3,3.054326226E-4,4.581489484E-4
3.473853758E0,-1.527163113E-4,-9.162978968E-4,-7.635815418E-4
3.476090330E0,-1.374446787E-3,-9.162978968E-4,-9.162978968E-4
3.478326536E0,1.069014193E-3,1.374446787E-3,4.581489484E-4
3.480562742E0,-1.374446787E-3,3.970623948E-3,4.581489484E-4
3.482799314E0,1.069014193E-3,2.596177394E-3,1.679879380E-3
3.485033384E0,1.069014193E-3,1.527163113E-4,4.581489484E-4
3.487256894E0,-1.374446787E-3,1.527163084E-3,4.581489484E-4
3.489496336E0,9.162978968E-4,-3.359758761E-3,-7.635815418E-4
3.491743832E0,1.069014193E-3,1.527163113E-4,-7.635815418E-4
3.493983213E0,1.069014193E-3,3.817907767E-3,-1.985311974E-3
3.496219663E0,-1.527163113E-4,2.596177394E-3,4.581489484E-4
3.498452818E0,1.069014193E-3,5.039638374E-3,1.679879380E-3
3.500686276E0,2.290744567E-3,-1.069014193E-3,4.581489484E-4
3.502914487E0,1.069014193E-3,-2.138028387E-3,4.581489484E-4
3.505161558E0,-2.596177394E-3,3.054326226E-4,-9.162978968E-4
3.507394895E0,-1.374446787E-3,-9.162978968E-4,-9.162978968E-4
3.509625485E0,-3.054326226E-4,-2.138028387E-3,1.679879380E-3
3.511870359E0,-2.596177394E-3,1.527163084E-3,4.581489484E-4
3.514106504E0,-5.039638374E-3,1.527163084E-3,-9.162978968E-4
3.516342710E0,1.069014193E-3,1.374446787E-3,-1.985311974E-3
3.518566586E0,-1.374446787E-3,3.054326226E-4,-2.138028387E-3
3.520796506E0,-1.374446787E-3,-9.162978968E-4,3.054326226E-4
3.523039731E0,-1.527163113E-4,3.054326226E-4,4.581489484E-4
3.525289975E0,1.069014193E-3,1.527163113E-4,1.679879380E-3
3.527525083E0,-1.527163113E-4,5.039638374E-3,4.581489484E-4
3.529748350E0,-2.748893574E-3,-9.162978968E-4,1.527163084E-3
3.531984922E0,-1.374446787E-3,-9.162978968E-4,3.054326226E-4
3.534233152E0,1.069014193E-3,-2.138028387E-3,4.581489484E-4
3.536472470E0,-1.527163113E-4,1.527163084E-3,-7.635815418E-4
3.538709286E0,2.290744567E-3,1.374446787E-3,1.679879380E-3
3.540941831E0,-1.374446787E-3,3.054326226E-4,-9.162978968E-4
3.543177976E0,-1.527163113E-4,-9.162978968E-4,4.581489484E-4
3.545414060E0,-1.527163113E-4,1.527163084E-3,4.581489484E-4
3.547647397E0,-1.527163113E-4,1.527163084E-3,-7.635815418E-4
3.549874998E0,-1.527163113E-4,3.054326226E-4,-3.207042580E-3
3.552122984E0,1.069014193E-3,-2.138028387E-3,-1.985311974E-3
3.554359373E0,2.290744567E-3,1.527163113E-4,1.679879380E-3
3.556599362E0,1.069014193E-3,-1.069014193E-3,4.581489484E-4
3.558831724E0,-1.374446787E-3,2.748893574E-3,4.581489484E-4
3.561067869E0,1.069014193E-3,1.527163113E-4,1.679879380E-3
3.563303892E0,9.162978968E-4,-4.581489135E-3,-7.635815418E-4
3.565540220E0,-1.527163113E-4,-2.138028387E-3,-7.635815418E-4
3.567773679E0,-1.527163113E-4,3.054326226E-4,1.679879380E-3
3.569998349E0,-1.374446787E-3,3.054326226E-4,-9.162978968E-4
3.572235227E0,-1.527163113E-4,1.527163084E-3,4.581489484E-4
3.574472165E0,-1.527163113E-4,-9.162978968E-4,1.679879380E-3
3.576710020E0,-3.054326226E-4,-5.803219974E-3,-2.138028387E-3
3.578946531E0,2.290744567E-3,1.527163113E-4,1.679879380E-3
3.581182493E0,-1.527163113E-4,1.527163084E-3,4.581489484E-4
3.583418577E0,-1.527163113E-4,2.596177394E-3,-7.635815418E-4
3.585654478E0,1.069014193E-3,1.374446787E-3,4.581489484E-4
3.587891477E0,2.290744567E-3,1.527163113E-4,-7.635815418E-4
3.590128721E0,1.069014193E-3,3.817907767E-3,-1.985311974E-3
3.592365110E0,-1.374446787E-3,-9.162978968E-4,-2.138028387E-3
3.594600034E0,-1.527163113E-4,1.527163084E-3,4.581489484E-4
3.596835934E0,-1.527163113E-4,-9.162978968E-4,1.679879380E-3
3.599074338E0,-2.748893574E-3,-3.359758761E-3,-9.162978968E-4
3.601319394E0,2.290744567E-3,1.527163113E-4,-7.635815418E-4
3.603554990E0,-1.374446787E-3,1.527163084E-3,-7.635815418E-4
3.605788572E0,-1.374446787E-3,1.527163084E-3,4.581489484E-4
3.608016660E0,3.512475174E-3,2.596177394E-3,1.679879380E-3
3.610252805E0,-1.527163113E-4,2.596177394E-3,-7.635815418E-4
3.612488218E0,-1.527163084E-3,-2.138028387E-3,-9.162978968E-4
3.614726011E0,-1.374446787E-3,1.527163084E-3,-7.635815418E-4
3.616962095E0,-1.374446787E-3,1.527163084E-3,4.581489484E-4
3.619198850E0,2.290744567E-3,2.596177394E-3,4.581489484E-4
3.621435484E0,1.069014193E-3,-1.069014193E-3,1.679879380E-3
3.623671201E0,-1.527163084E-3,-2.138028387E-3,-9.162978968E-4
3.625910947E0,-1.527163113E-4,-9.162978968E-4,-7.635815418E-4
3.628156491E0,-1.527163113E-4,-9.162978968E-4,-7.635815418E-4
3.630382626E0,-1.527163084E-3,-3.359758761E-3,-9.162978968E-4
3.632631039E0,2.290744567E-3,-2.290744567E-3,4.581489484E-4
3.634864011E0,-1.527163113E-4,3.054326226E-4,-1.985311974E-3
3.637103880E0,1.069014193E-3,1.374446787E-3,-7.635815418E-4
3.639336851E0,2.290744567E-3,1.374446787E-3,2.901609987E-3
3.641572935E0,-1.527163113E-4,-2.138028387E-3,-7.635815418E-4
3.643809263E0,-1.374446787E-3,-9.162978968E-4,-9.162978968E-4
3.646046568E0,-1.527163113E-4,3.054326226E-4,4.581489484E-4
3.648278806E0,-1.374446787E-3,3.054326226E-4,1.679879380E-3
3.650502377E0,-1.374446787E-3,1.527163084E-3,4.581489484E-4
3.652737973E0,-1.527163113E-4,-9.162978968E-4,4.581489484E-4
3.654990537E0,-3.054326226E-4,-2.138028387E-3,1.679879380E-3
3.657229916E0,1.069014193E-3,1.374446787E-3,4.581489484E-4
3.659467160E0,-1.374446787E-3,3.054326226E-4,4.581489484E-4
3.661700742E0,1.069014193E-3,1.374446787E-3,-1.985311974E-3
3.663936704E0,-1.527163113E-4,3.054326226E-4,4.581489484E-4
3.666171873E0,1.069014193E-3,2.596177394E-3,4.581489484E-4
3.668404661E0,-1.527163113E-4,3.054326226E-4,4.581489484E-4
3.670632017E0,-1.527163113E-4,3.054326226E-4,4.581489484E-4
3.672880613E0,1.069014193E-3,1.527163113E-4,-7.635815418E-4
3.675117002E0,1.069014193E-3,-2.138028387E-3,4.581489484E-4
3.677356259E0,-1.527163113E-4,1.527163084E-3,-7.635815418E-4
3.679589597E0,1.069014193E-3,1.374446787E-3,1.679879380E-3
3.681826597E0,-1.527163113E-4,3.054326226E-4,1.679879380E-3
3.684061643E0,-1.527163113E-4,3.054326226E-4,-7.635815418E-4
3.686298703E0,-1.374446787E-3,1.527163084E-3,2.901609987E-3
3.688537289E0,-2.748893574E-3,-2.138028387E-3,1.527163084E-3
3.690769529E0,-1.527163084E-3,-2.138028387E-3,-9.162978968E-4
3.693006834E0,1.069014193E-3,-1.069014193E-3,4.581489484E-4
3.695242063E0,2.290744567E-3,1.527163113E-4,-7.635815418E-4
3.697475828E0,1.069014193E-3,1.374446787E-3,-1.985311974E-3
3.699699949E0,-2.596177394E-3,2.748893574E-3,-7.635815418E-4
3.701951902E0,-1.374446787E-3,1.527163084E-3,-7.635815418E-4
3.704187986E0,-1.527163113E-4,1.527163084E-3,-7.635815418E-4
3.706428403E0,2.290744567E-3,1.527163113E-4,1.679879380E-3
3.708660459E0,1.069014193E-3,1.374446787E-3,2.901609987E-3
3.710897214E0,-1.527163113E-4,-9.162978968E-4,2.901609987E-3
3.713132993E0,-1.527163113E-4,-9.162978968E-4,2.901609987E-3
3.715366696E0,9.162978968E-4,-3.359758761E-3,1.679879380E-3
3.717594602E0,-1.527163113E-4,1.527163084E-3,4.581489484E-4
3.719841795E0,1.069014193E-3,-1.069014193E-3,4.581489484E-4
3.722078062E0,2.290744567E-3,-1.069014193E-3,-7.635815418E-4
3.724316892E0,-1.527163113E-4,1.527163084E-3,4.581489484E-4
3.726550596E0,-1.374446787E-3,-9.162978968E-4,-2.138028387E-3
3.728787107E0,-3.817907767E-3,3.054326226E-4,3.054326226E-4
3.731023557E0,-3.054326226E-4,-3.359758761E-3,-9.162978968E-4
3.733260984E0,-1.527163113E-4,3.054326226E-4,4.581489484E-4
3.735496458E0,-1.374446787E-3,1.527163084E-3,1.679879380E-3
3.737731626E0,-1.527163113E-4,2.596177394E-3,1.679879380E-3
3.739967648E0,-1.527163084E-3,-2.138028387E-3,3.054326226E-4
3.742204098E0,-1.527163113E-4,3.054326226E-4,-7.635815418E-4
3.744440732E0,-1.374446787E-3,-2.138028387E-3,-2.138028387E-3
3.746677000E0,-1.527163113E-4,-9.162978968E-4,4.581489484E-4
3.748913084E0,-1.527163113E-4,-2.138028387E-3,3.054326226E-4
3.751146665E0,-1.527163113E-4,1.527163084E-3,-7.635815418E-4
3.753373350E0,-1.527163113E-4,1.527163084E-3,4.581489484E-4
3.755616453E0,1.069014193E-3,-1.069014193E-3,-7.635815418E-4
3.757858152E0,-1.374446787E-3,3.054326226E-4,-9.162978968E-4
3.760097165E0,-1.527163113E-4,3.817907767E-3,-7.635815418E-4
3.762331906E0,-1.527163113E-4,5.039638374E-3,4.581489484E-4
3.764566831E0,-1.374446787E-3,1.527163084E-3,-2.138028387E-3
3.766802976E0,-1.527163113E-4,3.054326226E-4,-1.985311974E-3
3.769039853E0,2.290744567E-3,2.596177394E-3,4.581489484E-4
3.771276853E0,-1.527163113E-4,3.054326226E-4,-7.635815418E-4
3.773511961E0,-1.527163113E-4,2.596177394E-3,1.679879380E-3
3.775747984E0,-1.527163084E-3,-3.359758761E-3,3.054326226E-4
3.777984007E0,-1.527163113E-4,-9.162978968E-4,1.679879380E-3
3.780217527E0,-1.527163113E-4,-9.162978968E-4,1.679879380E-3
3.782441770E0,-1.374446787E-3,1.527163084E-3,-7.635815418E-4
3.784678953E0,-2.596177394E-3,3.054326226E-4,-9.162978968E-4
3.786929746E0,-2.596177394E-3,1.527163084E-3,3.054326226E-4
3.789169614E0,-1.374446787E-3,-9.162978968E-4,3.054326226E-4
3.791405332E0,-1.374446787E-3,-9.162978968E-4,-9.162978968E-4
3.793637937E0,-1.527163113E-4,2.596177394E-3,-7.635815418E-4
3.795874203E0,-1.527163113E-4,-9.162978968E-4,1.679879380E-3
3.798107907E0,-1.527163113E-4,-2.138028387E-3,-9.162978968E-4
3.800336240E0,-1.374446787E-3,1.527163084E-3,4.581489484E-4
3.802583494E0,1.069014193E-3,-1.069014193E-3,4.581489484E-4
3.804820798E0,1.069014193E-3,-2.138028387E-3,4.581489484E-4
3.807059323E0,1.069014193E-3,-1.069014193E-3,1.679879380E-3
3.809291990E0,-1.374446787E-3,1.527163084E-3,1.679879380E-3
3.811528074E0,-1.527163084E-3,-2.138028387E-3,4.581489484E-4
3.813764402E0,-1.527163113E-4,1.527163084E-3,-7.635815418E-4
3.816000730E0,-3.054326226E-4,-3.359758761E-3,4.581489484E-4
3.818234128E0,3.512475174E-3,1.374446787E-3,4.581489484E-4
3.820458555E0,2.290744567E-3,-1.069014193E-3,1.679879380E-3
3.822697507E0,-1.527163113E-4,1.527163084E-3,1.679879380E-3
3.824946775E0,1.069014193E-3,-1.069014193E-3,2.901609987E-3
3.827185056E0,1.069014193E-3,1.374446787E-3,4.581489484E-4
3.829421507E0,-1.527163113E-4,1.527163084E-3,-7.635815418E-4
3.831654234E0,1.069014193E-3,-1.069014193E-3,-7.635815418E-4
3.833890623E0,1.069014193E-3,-1.069014193E-3,-7.635815418E-4
3.836127073E0,1.069014193E-3,-1.069014193E-3,-7.635815418E-4
3.838362913E0,2.290744567E-3,-1.069014193E-3,4.581489484E-4
3.840599363E0,9.162978968E-4,-3.359758761E-3,-1.985311974E-3
3.842836546E0,-2.748893574E-3,-2.138028387E-3,-9.162978968E-4
3.845071775E0,-1.527163113E-4,1.527163084E-3,1.679879380E-3
3.847305905E0,1.069014193E-3,-2.138028387E-3,-7.635815418E-4
3.849532163E0,2.290744567E-3,1.527163113E-4,1.679879380E-3
3.851768857E0,-1.527163113E-4,3.054326226E-4,4.581489484E-4
3.854017087E0,2.290744567E-3,1.527163113E-4,4.581489484E-4
3.856255429E0,3.512475174E-3,1.527163113E-4,-7.635815418E-4
3.858492735E0,-1.374446787E-3,3.054326226E-4,-7.635815418E-4
3.860726865E0,-1.527163113E-4,1.527163084E-3,-7.635815418E-4
3.862959470E0,-1.374446787E-3,1.527163084E-3,-7.635815418E-4
3.865183591E0,-1.374446787E-3,-9.162978968E-4,-7.635815418E-4
3.867419553E0,-1.527163113E-4,2.596177394E-3,-7.635815418E-4
3.869655698E0,1.069014193E-3,1.374446787E-3,1.679879380E-3
3.871895505E0,9.162978968E-4,-3.359758761E-3,4.581489484E-4
3.874131833E0,-1.527163113E-4,-9.162978968E-4,-1.985311974E-3
3.876369260E0,-1.374446787E-3,3.054326226E-4,-2.138028387E-3
3.878605161E0,-1.527163113E-4,3.054326226E-4,-7.635815418E-4
3.880840269E0,-1.374446787E-3,1.527163084E-3,1.679879380E-3
3.883076231E0,-2.748893574E-3,-2.138028387E-3,1.527163084E-3
3.885312925E0,-1.527163113E-4,1.527163084E-3,4.581489484E-4
3.887549192E0,1.069014193E-3,-1.069014193E-3,4.581489484E-4
3.889785886E0,-1.527163113E-4,-9.162978968E-4,4.581489484E-4
3.892021360E0,-1.527163113E-4,1.527163084E-3,1.679879380E-3
3.894258176E0,2.290744567E-3,1.527163113E-4,4.581489484E-4
3.896495603E0,-1.527163113E-4,1.527163084E-3,-7.635815418E-4
3.898731016E0,-1.374446787E-3,3.970623948E-3,4.581489484E-4
3.900966795E0,-1.527163113E-4,3.817907767E-3,-7.635815418E-4
3.903202513E0,-2.596177394E-3,3.970623948E-3,4.581489484E-4
3.905439085E0,-2.596177394E-3,3.970623948E-3,4.581489484E-4
3.907675413E0,-1.527163113E-4,2.596177394E-3,-7.635815418E-4
3.909911375E0,1.069014193E-3,1.374446787E-3,1.679879380E-3
3.912148191E0,9.162978968E-4,-3.359758761E-3,-7.635815418E-4
3.914385191E0,1.069014193E-3,-1.069014193E-3,-1.985311974E-3
3.916620786E0,1.069014193E-3,2.596177394E-3,4.581489484E-4
3.918858091E0,1.069014193E-3,3.817907767E-3,-7.635815418E-4
3.921092526E0,1.069014193E-3,1.527163113E-4,-7.635815418E-4
3.923329770E0,1.069014193E-3,-1.069014193E-3,4.581489484E-4
3.925567624E0,2.290744567E-3,2.596177394E-3,1.679879380E-3
3.927805356E0,1.069014193E-3,1.527163113E-4,-1.985311974E-3
3.930038755E0,-1.527163113E-4,3.054326226E-4,-7.635815418E-4
3.932274717E0,-1.527163113E-4,2.596177394E-3,4.581489484E-4
3.934510374E0,2.290744567E-3,1.374446787E-3,-7.635815418E-4
3.936749998E0,1.069014193E-3,-1.069014193E-3,-7.635815418E-4
3.938985776E0,-1.374446787E-3,-9.162978968E-4,3.054326226E-4
3.941224912E0,-1.527163113E-4,1.527163084E-3,-7.635815418E-4
3.943455930E0,-1.374446787E-3,3.054326226E-4,4.581489484E-4
3.945695432E0,2.290744567E-3,1.374446787E-3,4.581489484E-4
3.947928708E0,-1.374446787E-3,-9.162978968E-4,3.054326226E-4
3.950163877E0,-1.527163084E-3,-4.581489135E-3,3.054326226E-4
3.952399228E0,-1.527163113E-4,3.054326226E-4,-7.635815418E-4
3.954636960E0,-1.374446787E-3,1.527163084E-3,-7.635815418E-4
3.956876584E0,2.290744567E-3,2.596177394E-3,-7.635815418E-4
3.959111325E0,-1.527163113E-4,3.054326226E-4,4.581489484E-4
3.961348203E0,-2.596177394E-3,3.054326226E-4,3.054326226E-4
3.963582273E0,-1.374446787E-3,3.054326226E-4,4.581489484E-4
3.965822629E0,-1.374446787E-3,-9.162978968E-4,1.527163084E-3
3.968060484E0,-3.817907767E-3,3.054326226E-4,3.054326226E-4
3.970307553E0,-1.374446787E-3,3.054326226E-4,4.581489484E-4
3.972529904E0,-1.527163113E-4,3.054326226E-4,-7.635815418E-4
3.974764341E0,1.069014193E-3,-1.069014193E-3,-7.635815418E-4
3.976999936E0,-1.527163113E-4,2.596177394E-3,4.581489484E-4
3.979235837E0,2.290744567E-3,1.374446787E-3,-7.635815418E-4
3.981475583E0,2.290744567E-3,1.527163113E-4,-7.635815418E-4
3.983707822E0,3.512475174E-3,1.374446787E-3,-7.635815418E-4
3.985948118E0,-1.374446787E-3,1.527163084E-3,4.581489484E-4
3.988179319E0,-1.374446787E-3,1.527163084E-3,-7.635815418E-4
3.990416624E0,1.069014193E-3,-1.069014193E-3,-7.635815418E-4
3.992653440E0,-2.596177394E-3,2.748893574E-3,4.581489484E-4
3.994892881E0,-2.596177394E-3,1.527163084E-3,3.054326226E-4
3.997125852E0,-1.527163113E-4,3.054326226E-4,2.901609987E-3
3.999362119E0,3.512475174E-3,1.527163113E-4,4.581489484E-4
4.001599424E0,1.069014193E-3,1.527163113E-4,-1.985311974E-3
4.003840086E0,1.069014193E-3,2.596177394E-3,4.581489484E-4
4.006071591E0,1.069014193E-3,1.527163113E-4,-1.985311974E-3
4.008309994E0,1.069014193E-3,-1.069014193E-3,4.581489484E-4
4.010541379E0,1.069014193E-3,1.374446787E-3,4.581489484E-4
4.012780271E0,2.290744567E-3,1.374446787E-3,1.679879380E-3
4.015018064E0,-1.527163113E-4,1.527163084E-3,4.581489484E-4
4.017256772E0,-1.374446787E-3,-9.162978968E-4,3.054326226E-4
4.019490476E0,1.069014193E-3,-2.138028387E-3,4.581489484E-4
4.021728390E0,2.290744567E-3,1.527163113E-4,4.581489484E-4
4.023961057E0,-1.527163113E-4,3.054326226E-4,4.581489484E-4
4.026199582E0,2.290744567E-3,-2.290744567E-3,4.581489484E-4
4.028432065E0,1.069014193E-3,-1.069014193E-3,4.581489484E-4
4.030669858E0,-1.527163113E-4,2.596177394E-3,4.581489484E-4
4.032906857E0,3.512475174E-3,2.596177394E-3,4.581489484E-4
4.035143796E0,3.512475174E-3,1.374446787E-3,-7.635815418E-4
4.037379880E0,2.138028387E-3,-3.512475174E-3,4.581489484E-4
4.039617490E0,-1.527163113E-4,2.596177394E-3,4.581489484E-4
4.041851499E0,-1.527163113E-4,3.054326226E-4,1.679879380E-3
4.044088621E0,-2.596177394E-3,3.054326226E-4,3.054326226E-4
4.046324521E0,-2.748893574E-3,-3.359758761E-3,1.527163084E-3
4.048560178E0,-1.527163113E-4,3.054326226E-4,1.679879380E-3
4.050796628E0,-1.527163113E-4,-9.162978968E-4,4.581489484E-4
4.053030881E0,1.069014193E-3,-1.069014193E-3,4.581489484E-4
4.055268918E0,-1.374446787E-3,3.054326226E-4,2.901609987E-3
4.057509275E0,1.069014193E-3,-1.069014193E-3,4.581489484E-4
4.059742307E0,-1.527163113E-4,-9.162978968E-4,1.679879380E-3
4.061981443E0,1.069014193E-3,-2.138028387E-3,4.581489484E-4
4.064214230E0,2.290744567E-3,-1.069014193E-3,-7.635815418E-4
4.066452146E0,1.069014193E-3,1.374446787E-3,-7.635815418E-4
4.068685300E0,-1.527163113E-4,1.527163084E-3,4.581489484E-4
4.070922483E0,1.069014193E-3,1.527163113E-4,-1.985311974E-3
4.073162046E0,-1.527163113E-4,3.054326226E-4,-7.635815418E-4
4.075400144E0,-2.596177394E-3,2.748893574E-3,1.527163084E-3
4.077632444E0,-2.596177394E-3,3.970623948E-3,4.581489484E-4
4.079866757E0,-1.527163113E-4,2.596177394E-3,4.581489484E-4
4.082101377E0,-1.527163113E-4,3.817907767E-3,-7.635815418E-4
4.084339231E0,-1.527163113E-4,1.527163084E-3,-7.635815418E-4
4.086576780E0,-1.527163113E-4,1.527163084E-3,-7.635815418E-4
4.088812681E0,-1.374446787E-3,1.527163084E-3,-7.635815418E-4
4.091052487E0,-1.374446787E-3,1.527163084E-3,-7.635815418E-4
4.093295835E0,-2.596177394E-3,3.054326226E-4,3.054326226E-4
4.095522214E0,-2.596177394E-3,3.054326226E-4,3.054326226E-4
4.097762937E0,-1.527163113E-4,5.039638374E-3,4.581489484E-4
4.099991391E0,-1.374446787E-3,5.192354787E-3,4.581489484E-4
4.102232297E0,2.290744567E-3,1.374446787E-3,-1.985311974E-3
4.104465207E0,-1.374446787E-3,3.054326226E-4,-9.162978968E-4
4.106703794E0,-1.527163113E-4,1.527163084E-3,4.581489484E-4
4.108939023E0,1.069014193E-3,1.374446787E-3,4.581489484E-4
4.111179441E0,-1.527163113E-4,-9.162978968E-4,-1.985311974E-3
4.113411863E0,1.069014193E-3,1.527163113E-4,-1.985311974E-3
4.115651060E0,-1.374446787E-3,1.527163084E-3,-7.635815418E-4
4.117883176E0,-1.527163113E-4,3.054326226E-4,4.581489484E-4
4.120120969E0,2.290744567E-3,1.374446787E-3,4.581489484E-4
4.122358945E0,-1.374446787E-3,5.192354787E-3,-7.635815418E-4
4.124592771E0,-1.374446787E-3,3.054326226E-4,-9.162978968E-4
4.126831662E0,-1.527163113E-4,1.527163084E-3,4.581489484E-4
4.129066159E0,-1.374446787E-3,1.527163084E-3,-7.635815418E-4
4.131303464E0,-1.527163113E-4,-9.162978968E-4,-1.985311974E-3
4.133540891E0,2.290744567E-3,1.374446787E-3,4.581489484E-4
4.135782101E0,2.290744567E-3,1.374446787E-3,4.581489484E-4
4.138008848E0,2.290744567E-3,-1.069014193E-3,4.581489484E-4
4.140246519E0,-3.054326226E-4,-2.138028387E-3,4.581489484E-4
4.142482786E0,-1.374446787E-3,2.748893574E-3,4.581489484E-4
4.144720518E0,2.290744567E-3,2.596177394E-3,1.679879380E-3
4.146962278E0,-1.374446787E-3,1.527163084E-3,-7.635815418E-4
4.149190488E0,-3.054326226E-4,-2.138028387E-3,4.581489484E-4
4.151429013E0,-1.527163113E-4,1.527163084E-3,-7.635815418E-4
4.153664548E0,-1.527163113E-4,2.596177394E-3,4.581489484E-4
4.155902891E0,-1.374446787E-3,2.748893574E-3,-7.635815418E-4
4.158136656E0,-1.527163084E-3,-9.162978968E-4,2.748893574E-3
4.160371153E0,9.162978968E-4,-2.138028387E-3,1.679879380E-3
4.162610288E0,-2.596177394E-3,-9.162978968E-4,-9.162978968E-4
4.164847897E0,-1.527163113E-4,3.054326226E-4,4.581489484E-4
4.167080564E0,-1.527163113E-4,1.527163084E-3,1.679879380E-3
4.169316952E0,-1.527163113E-4,1.527163084E-3,1.679879380E-3
4.171553525E0,-1.527163113E-4,-9.162978968E-4,2.901609987E-3
4.173794553E0,2.290744567E-3,1.527163113E-4,4.581489484E-4
4.176029721E0,-1.374446787E-3,-9.162978968E-4,3.054326226E-4
4.178265989E0,-1.527163113E-4,-9.162978968E-4,4.581489484E-4
4.180497801E0,-1.527163113E-4,-9.162978968E-4,1.679879380E-3
4.182737180E0,-1.527163113E-4,1.527163084E-3,-7.635815418E-4
4.184971311E0,-1.527163113E-4,1.527163084E-3,-7.635815418E-4
4.187210935E0,-1.527163113E-4,1.527163084E-3,-7.635815418E-4
4.189443417E0,-1.527163113E-4,3.054326226E-4,1.679879380E-3
4.191680844E0,-1.527163113E-4,-9.162978968E-4,4.581489484E-4
4.193918698E0,1.069014193E-3,-1.069014193E-3,-4.428773187E-3
4.196155271E0,-1.527163113E-4,3.054326226E-4,4.581489484E-4
4.198395139E0,-1.527163113E-4,3.054326226E-4,-7.635815418E-4
4.200624265E0,-1.527163113E-4,-9.162978968E-4,-1.985311974E-3
4.202857846E0,-1.527163113E-4,1.527163084E-3,-7.635815418E-4
4.205095639E0,1.069014193E-3,2.596177394E-3,4.581489484E-4
4.207335752E0,2.290744567E-3,1.527163113E-4,4.581489484E-4
4.209570798E0,-1.527163113E-4,3.817907767E-3,-1.985311974E-3
4.211807309E0,-1.374446787E-3,2.748893574E-3,1.679879380E-3
4.214044981E0,-1.527163113E-4,3.054326226E-4,4.581489484E-4
4.216280454E0,1.069014193E-3,1.527163113E-4,4.581489484E-4
4.218519712E0,-3.054326226E-4,-3.359758761E-3,-9.162978968E-4
4.220750302E0,2.290744567E-3,-2.290744567E-3,4.581489484E-4
4.222987485E0,-1.374446787E-3,3.970623948E-3,4.581489484E-4
4.225225888E0,1.069014193E-3,2.596177394E-3,1.679879380E-3
4.227459959E0,-1.374446787E-3,1.527163084E-3,-7.635815418E-4
4.229695371E0,-1.527163113E-4,1.527163084E-3,4.581489484E-4
4.231931455E0,1.069014193E-3,1.527163113E-4,-7.635815418E-4
4.234169736E0,-2.596177394E-3,1.527163084E-3,-7.635815418E-4
4.236406919E0,-1.527163113E-4,3.054326226E-4,-1.985311974E-3
4.238642270E0,9.162978968E-4,-2.138028387E-3,1.679879380E-3
4.240877561E0,-1.374446787E-3,1.527163084E-3,1.679879380E-3
4.243112729E0,9.162978968E-4,-7.024950348E-3,-9.162978968E-4
4.245350583E0,-1.527163113E-4,-9.162978968E-4,-7.635815418E-4
4.247587827E0,-3.054326226E-4,-2.138028387E-3,4.581489484E-4
4.249822629E0,-1.527163113E-4,-9.162978968E-4,4.581489484E-4
4.252061826E0,-1.527163084E-3,-2.138028387E-3,1.679879380E-3
4.254296690E0,1.069014193E-3,1.374446787E-3,1.679879380E-3
4.256533872E0,-1.527163113E-4,2.596177394E-3,-1.985311974E-3
4.258767880E0,1.069014193E-3,-2.138028387E-3,4.581489484E-4
4.261003476E0,2.290744567E-3,1.374446787E-3,-7.635815418E-4
4.263239560E0,1.069014193E-3,1.527163113E-4,4.581489484E-4
4.265476987E0,-1.374446787E-3,-9.162978968E-4,4.581489484E-4
4.267715879E0,-1.527163113E-4,3.054326226E-4,4.581489484E-4
4.269955137E0,-1.527163113E-4,1.527163084E-3,-1.985311974E-3
4.272185910E0,1.069014193E-3,1.527163113E-4,-7.635815418E-4
4.274423764E0,-1.527163113E-4,-2.138028387E-3,-7.635815418E-4
4.276656491E0,3.512475174E-3,1.527163113E-4,4.581489484E-4
4.278897031E0,-1.374446787E-3,1.527163084E-3,-1.985311974E-3
4.281128964E0,-1.527163084E-3,-3.359758761E-3,3.054326226E-4
4.283367795E0,-1.527163113E-4,-9.162978968E-4,4.581489484E-4
4.285605832E0,1.069014193E-3,1.527163113E-4,4.581489484E-4
4.287839292E0,3.512475174E-3,1.527163113E-4,4.581489484E-4
4.290076231E0,1.069014193E-3,1.527163113E-4,-7.635815418E-4
4.292311399E0,-1.527163113E-4,3.817907767E-3,-7.635815418E-4
4.294553159E0,1.069014193E-3,1.527163113E-4,-7.635815418E-4
4.296783811E0,2.290744567E-3,1.374446787E-3,-7.635815418E-4
4.299022275E0,2.290744567E-3,2.596177394E-3,1.679879380E-3
4.301256101E0,1.069014193E-3,2.596177394E-3,-7.635815418E-4
4.303493772E0,-1.374446787E-3,1.527163084E-3,4.581489484E-4
4.305730893E0,-1.374446787E-3,1.527163084E-3,4.581489484E-4
4.307969357E0,-2.748893574E-3,-2.138028387E-3,3.054326226E-4
4.310200864E0,-2.596177394E-3,2.748893574E-3,4.581489484E-4
4.312438535E0,-1.527163113E-4,3.054326226E-4,-7.635815418E-4
4.314675412E0,9.162978968E-4,-3.359758761E-3,4.581489484E-4
4.316910398E0,-3.054326226E-4,-2.138028387E-3,1.679879380E-3
4.319145811E0,-1.527163113E-4,-2.138028387E-3,-1.985311974E-3
4.321381955E0,2.290744567E-3,-2.290744567E-3,-7.635815418E-4
4.323619199E0,-1.527163113E-4,2.596177394E-3,4.581489484E-4
4.325855589E0,-2.596177394E-3,1.527163084E-3,1.679879380E-3
4.328089902E0,-1.527163113E-4,-2.138028387E-3,-7.635815418E-4
4.330324705E0,-1.527163084E-3,0.000000000E0,1.527163084E-3
4.332565854E0,-1.679879380E-3,-3.665191587E-3,-1.069014193E-3
4.334811277E0,9.162978968E-4,-2.443460980E-3,3.054326226E-4
4.337039060E0,-1.527163084E-3,3.665191587E-3,3.054326226E-4
4.339286618E0,-1.527163084E-3,-1.221730490E-3,3.054326226E-4
4.341520261E0,-4.581489484E-4,-2.443460980E-3,1.527163084E-3
4.343760312E0,-2.901609987E-3,-4.886921961E-3,-1.069014193E-3
4.345992612E0,-1.679879380E-3,-3.665191587E-3,1.527163113E-4
4.348225522E0,-1.527163084E-3,1.221730490E-3,-9.162978968E-4
4.350452818E0,-1.679879380E-3,-3.665191587E-3,-1.069014193E-3
4.352701170E0,-3.054326226E-4,0.000000000E0,-9.162978968E-4
4.354937742E0,9.162978968E-4,1.069014193E-3,-9.162978968E-4
4.357176572E0,9.162978968E-4,1.069014193E-3,-2.138028387E-3
4.359410398E0,9.162978968E-4,-1.527163113E-4,-2.138028387E-3
4.361644223E0,9.162978968E-4,1.069014193E-3,3.054326226E-4
4.363867856E0,2.138028387E-3,-1.374446787E-3,1.527163084E-3
4.366106626E0,-2.901609987E-3,-2.443460980E-3,1.374446787E-3
4.368351804E0,-1.679879380E-3,-2.443460980E-3,-9.162978968E-4
4.370582516E0,-1.527163084E-3,1.221730490E-3,-9.162978968E-4
4.372830624E0,9.162978968E-4,1.069014193E-3,-9.162978968E-4
4.375064023E0,9.162978968E-4,2.290744567E-3,-9.162978968E-4
4.377304441E0,-3.054326226E-4,1.221730490E-3,-9.162978968E-4
4.379537290E0,2.290744567E-3,4.734205548E-3,3.054326226E-4
4.381772398E0,-3.054326226E-4,0.000000000E0,1.527163084E-3
4.384008238E0,-1.527163084E-3,0.000000000E0,1.527163084E-3
4.386244810E0,-3.054326226E-4,0.000000000E0,1.527163084E-3
4.388481199E0,9.162978968E-4,1.069014193E-3,2.748893574E-3
4.390717527E0,9.162978968E-4,1.069014193E-3,1.527163084E-3
4.392953611E0,-1.527163084E-3,0.000000000E0,-1.069014193E-3
4.395190427E0,-3.054326226E-4,1.221730490E-3,3.054326226E-4
4.397427244E0,-1.527163084E-3,2.443460980E-3,-2.138028387E-3
4.399662595E0,-2.748893574E-3,2.443460980E-3,1.527163084E-3
4.401894101E0,-3.054326226E-4,2.290744567E-3,3.054326226E-4
4.404113767E0,-1.527163084E-3,1.221730490E-3,3.054326226E-4
4.406359617E0,-1.374446787E-3,7.177666761E-3,-9.162978968E-4
4.408604978E0,9.162978968E-4,2.290744567E-3,1.527163084E-3
4.410837521E0,2.138028387E-3,-1.374446787E-3,1.527163084E-3
4.413083249E0,9.162978968E-4,1.069014193E-3,-9.162978968E-4
4.415317380E0,9.162978968E-4,-1.527163113E-4,3.054326226E-4
4.417555417E0,-3.054326226E-4,-1.221730490E-3,-9.162978968E-4
4.419788816E0,2.138028387E-3,2.290744567E-3,-9.162978968E-4
4.422024839E0,-3.054326226E-4,1.221730490E-3,3.054326226E-4
4.424261228E0,2.138028387E-3,-1.527163113E-4,3.054326226E-4
4.426497739E0,9.162978968E-4,2.290744567E-3,-9.162978968E-4
4.428733579E0,-1.527163084E-3,3.665191587E-3,3.054326226E-4
4.430967282E0,-1.527163084E-3,2.443460980E-3,3.054326226E-4
4.433195432E0,-3.054326226E-4,1.221730490E-3,3.054326226E-4
4.435442380E0,-1.527163084E-3,3.665191587E-3,-9.162978968E-4
4.437678770E0,9.162978968E-4,2.290744567E-3,1.527163084E-3
4.439917905E0,9.162978968E-4,1.069014193E-3,1.527163084E-3
4.442151182E0,-1.679879380E-3,-2.443460980E-3,-1.069014193E-3
4.444387693E0,-3.054326226E-4,0.000000000E0,-9.162978968E-4
