"Time (s)","Gyroscope x (rad/s)","Gyroscope y (rad/s)","Gyroscope z (rad/s)","Absolute (rad/s)"
3.639333328E-3,1.104511903E-3,-3.011545865E-3,1.007912913E-3,3.362327093E-3
1.359533332E-2,9.670401923E-4,-3.349262057E-3,7.364624180E-4,3.563018377E-3
2.355233332E-2,1.052793930E-3,3.208404523E-4,2.047536662E-3,2.324590294E-3
3.350933333E-2,-6.594741717E-5,-1.131354133E-3,1.088299323E-4,1.138488116E-3
4.346533332E-2,5.535038654E-4,-9.116433794E-4,-1.186797861E-3,1.595603128E-3
5.342233332E-2,-1.963312272E-3,3.266771091E-5,-6.600888446E-5,1.964693215E-3
6.337933333E-2,-2.264249604E-3,-1.218485413E-3,-2.883899491E-3,3.863729966E-3
7.333533332E-2,-5.985496100E-4,-7.053480949E-4,-6.581791677E-4,1.135331400E-3
8.329233332E-2,2.912124619E-4,8.241494652E-5,-6.256885827E-4,6.950418145E-4
9.324833332E-2,2.141601639E-3,2.947610803E-3,9.522156324E-4,3.765844080E-3
1.032053333E-1,-7.545859553E-4,-5.560440477E-4,-1.081906725E-3,1.431470261E-3
1.131613333E-1,6.608448457E-4,2.326843562E-3,8.499787655E-4,2.563860521E-3
1.231183333E-1,1.443814253E-3,3.366633318E-4,-9.788139723E-4,1.776518671E-3
1.330753333E-1,-7.661529817E-4,-1.445542672E-3,-1.840141136E-3,2.462255756E-3
1.430313333E-1,3.829930443E-3,-1.959876390E-4,-2.669449430E-3,4.672551617E-3
1.529883333E-1,-7.904949598E-5,7.373588160E-4,-1.303252764E-3,1.499471445E-3
1.629453333E-1,-2.069762209E-3,1.995436149E-3,-2.454449423E-4,2.885467769E-3
1.729013333E-1,8.500184631E-4,-2.097151009E-4,1.511558890E-3,1.746803392E-3
1.828583333E-1,1.440707594E-3,6.132016424E-4,4.484250676E-4,1.628723324E-3
1.928143333E-1,8.722316707E-4,-1.094097039E-3,1.908519771E-3,2.366491947E-3
2.027713333E-1,2.564404160E-3,5.639870651E-4,-1.472629607E-3,3.010463098E-3
2.127283333E-1,-3.489518072E-3,3.615951864E-4,3.551116679E-4,3.526129855E-3
2.226843333E-1,-1.001129858E-4,3.304362181E-4,1.689888071E-3,1.724799234E-3
2.326413333E-1,-4.474888556E-5,2.166838385E-4,-6.162319332E-4,6.547489169E-4
2.425973333E-1,6.796309026E-4,6.278759101E-4,-1.453850418E-4,9.366232608E-4
2.525543333E-1,7.346218918E-4,1.422342611E-3,-6.818766706E-4,1.740024029E-3
2.625113333E-1,-7.301166188E-4,1.485725865E-3,-1.414778642E-3,2.177624906E-3
2.724673333E-1,4.286858020E-4,2.327486407E-3,-5.180216394E-4,2.422666075E-3
2.824243333E-1,5.469301250E-4,6.464992184E-4,-1.638215035E-4,8.625145135E-4
2.923803333E-1,1.596877817E-3,-1.583852340E-3,-2.884903923E-3,3.658042870E-3
3.023373333E-1,1.776791178E-4,9.384275181E-4,-6.499793380E-4,1.155287503E-3
3.122943333E-1,-1.108643599E-3,-5.708690733E-4,3.311380278E-4,1.290207162E-3
3.222503333E-1,-2.291619545E-3,-7.200061809E-4,-8.710129187E-4,2.555111063E-3
3.322073333E-1,-3.258031793E-4,-1.972733298E-4,-2.877040766E-3,2.902141976E-3
3.421633333E-1,-7.745458279E-4,2.964767045E-4,5.730844568E-4,1.008090011E-3
3.521203333E-1,-2.382554580E-3,4.780127783E-4,1.094234176E-4,2.432495843E-3
3.620773333E-1,-1.438197680E-3,-1.744661480E-3,2.232229337E-3,3.177279349E-3
3.720333333E-1,1.415577135E-3,-3.375575179E-4,5.839332007E-4,1.568050282E-3
3.819903333E-1,4.773454275E-4,-8.123990847E-4,3.851763904E-5,9.430453533E-4
3.919463333E-1,-1.090175938E-3,-1.462659682E-3,-5.662953481E-4,1.910117102E-3
4.019033333E-1,-3.034782130E-4,-1.234160387E-3,-4.459205084E-4,1.346883806E-3
4.118603333E-1,-5.776544567E-4,-1.187243150E-3,5.797983613E-4,1.442011480E-3
4.218163333E-1,-1.055691857E-3,-1.967815682E-3,4.751360975E-4,2.283098370E-3
4.317733333E-1,6.796380039E-4,1.148596639E-4,2.903039567E-4,7.479150661E-4
4.417293333E-1,-2.699913457E-3,-2.662018407E-3,1.493329182E-5,3.791582477E-3
4.516863333E-1,-3.070847597E-4,-1.525905798E-3,-1.503054984E-3,2.163761502E-3
4.616433333E-1,5.906668957E-4,-2.039629500E-3,6.040381268E-4,2.207677046E-3
4.715993333E-1,-1.059581060E-3,7.967668353E-5,1.106188167E-3,1.533855488E-3
4.815563333E-1,-6.878038403E-4,-8.761318168E-4,8.270889521E-4,1.387356197E-3
4.915123333E-1,-9.451706428E-4,1.069253078E-3,-9.746011347E-5,1.430436354E-3
5.014693333E-1,2.075120341E-3,3.486017231E-4,-2.899372019E-3,3.582458052E-3
5.114263333E-1,9.843648877E-4,-1.472448814E-3,2.289037686E-3,2.894265584E-3
5.213823333E-1,-1.618608600E-3,5.875062197E-4,-4.111411981E-4,1.770337381E-3
5.313393333E-1,-2.208591904E-4,-4.493915476E-4,-1.268284861E-3,1.363553458E-3
5.412953333E-1,7.581687532E-5,-6.177033065E-4,1.056921203E-3,1.226534958E-3
5.512523333E-1,2.786572557E-3,-1.550385496E-3,-2.717373427E-3,4.189606204E-3
5.612093333E-1,7.031252608E-6,-1.277248375E-4,-1.271010842E-3,1.277431655E-3
5.711653333E-1,2.611419652E-3,7.862696657E-5,-3.144419752E-4,2.631457496E-3
5.811223333E-1,2.169716172E-4,1.350552659E-3,-5.855518393E-4,1.487931491E-3
5.910793333E-1,-2.277945168E-3,1.806668006E-4,-9.094784036E-4,2.459436043E-3
6.010353333E-1,2.239575144E-3,-9.261429077E-4,-6.879032589E-4,2.519255526E-3
6.109923333E-1,-2.259207424E-3,1.310462249E-3,9.528144728E-4,2.780141167E-3
6.209483333E-1,9.608208202E-4,2.357883379E-3,-4.983418621E-4,2.594443156E-3
6.309053333E-1,1.056488254E-3,3.628149279E-4,-1.455936115E-3,1.835089119E-3
6.408623333E-1,1.462197397E-4,1.359902439E-3,4.873725120E-4,1.451980310E-3
6.508183333E-1,-6.210454740E-4,-2.179595875E-3,3.729895689E-4,2.296836275E-3
6.607760417E-1,-7.637909148E-4,-6.264919648E-5,8.824523538E-4,1.168770140E-3
6.707320416E-1,-1.149780583E-4,7.133814506E-5,1.263293670E-3,1.270519572E-3
6.806890416E-1,2.092249691E-3,1.610112609E-3,-5.894675851E-4,2.705077341E-3
6.906460417E-1,-1.982616028E-3,-1.090389211E-3,-9.046550840E-4,2.436824935E-3
7.006020417E-1,-2.976339310E-4,-2.437702497E-4,1.729477663E-3,1.771751359E-3
7.105590416E-1,1.855555456E-3,-1.425048802E-3,-2.496147994E-3,3.421199343E-3
7.205150417E-1,-3.210459836E-4,2.711185371E-4,1.262668520E-4,4.387699883E-4
7.304720417E-1,-1.008892898E-3,1.313862391E-3,5.913311616E-4,1.758912108E-3
7.404290417E-1,-2.237142762E-3,1.305073965E-3,-1.326677389E-3,2.909999775E-3
7.503850417E-1,-4.780713934E-4,1.196236815E-3,-1.611880492E-3,2.063417916E-3
7.603420417E-1,1.951756421E-4,1.737124869E-3,-1.520534046E-3,2.316834074E-3
7.702980417E-1,5.586608313E-4,-5.942182615E-4,1.260003075E-3,1.500934714E-3
7.802550417E-1,-2.370916773E-4,1.168457093E-4,-1.071328297E-3,1.103453535E-3
7.902120417E-1,1.153162215E-3,-1.658496563E-3,-1.374809537E-3,2.443459680E-3
8.001680417E-1,4.971070215E-3,2.413476817E-3,8.950028569E-4,5.597985311E-3
8.101250417E-1,-1.401832793E-3,2.397513250E-3,-4.542642273E-4,2.814171450E-3
8.200810417E-1,3.062956966E-3,-1.458477695E-3,-1.748986542E-4,3.396976906E-3
8.300380417E-1,6.729277084E-4,1.555897761E-4,9.073119145E-4,1.140287152E-3
8.399950417E-1,1.009284984E-3,3.438468324E-3,-3.797960933E-3,5.221707369E-3
8.499510417E-1,-1.224052161E-3,1.150400960E-3,6.052404642E-4,1.785508914E-3
8.599080417E-1,-2.227034420E-4,1.324305311E-3,5.873974878E-4,1.465747996E-3
8.698640417E-1,-8.747349493E-4,4.653865471E-5,-1.270305831E-3,1.543050220E-3
8.798210417E-1,3.109043464E-4,1.333577093E-4,-1.609592699E-3,1.644759693E-3
8.897780417E-1,2.006503288E-3,2.303167246E-3,7.166527212E-5,3.055449348E-3
8.997340417E-1,-4.846176598E-4,5.734440638E-4,-2.529742196E-4,7.922678375E-4
9.096910417E-1,4.761723801E-3,-2.066668821E-4,-1.831094269E-3,5.105842828E-3
9.196470417E-1,6.713750772E-4,5.054404028E-6,-4.033735022E-4,7.832497836E-4
9.296040417E-1,-3.714056220E-4,-3.482806729E-3,1.336365705E-3,3.748834238E-3
9.395610417E-1,1.345267985E-3,1.480526640E-3,1.004535705E-3,2.238480973E-3
9.495170416E-1,-1.528010704E-3,-3.340106341E-4,8.948566392E-4,1.801984522E-3
9.594740417E-1,2.706882078E-4,-1.552406698E-3,-1.776826568E-3,2.374942382E-3
9.694310417E-1,-7.592842449E-4,-1.252216985E-3,-1.717275009E-3,2.256899067E-3
9.793870416E-1,-1.434395555E-3,6.671230076E-4,7.922218647E-4,1.769225593E-3
9.893440416E-1,1.559882192E-3,-7.052568253E-4,9.778668173E-4,1.971507838E-3
9.993000417E-1,2.694655210E-3,-1.715593971E-4,-1.338550821E-3,3.013688376E-3
1.009257042E0,-3.582211211E-4,-3.560331184E-3,3.362273332E-3,4.910108193E-3
1.019214042E0,1.940619433E-3,2.554462990E-4,1.174752833E-3,2.282827373E-3
1.029170042E0,-2.016335493E-3,1.019101357E-3,2.182471333E-3,3.141235030E-3
1.039127042E0,3.799767001E-4,1.208984759E-3,-7.355543785E-4,1.465287236E-3
1.049083042E0,2.471878426E-3,2.704553772E-4,-2.788682468E-4,2.502218329E-3
1.059040042E0,5.943498109E-4,2.245455515E-3,6.889246870E-4,2.422795780E-3
1.068997042E0,-7.936682086E-4,3.046597121E-4,-7.188706659E-4,1.113329152E-3
1.078953042E0,2.620770596E-3,-8.980238927E-4,3.446579678E-3,4.421967538E-3
1.088910042E0,7.125865668E-4,-1.339785522E-4,1.156502403E-4,7.342375949E-4
1.098866042E0,1.639100257E-3,1.972581726E-3,-1.452152617E-3,2.947282739E-3
1.108823042E0,-3.638014663E-3,-1.037832582E-3,2.966492902E-4,3.794765863E-3
1.118780042E0,-1.381518319E-3,-6.929531810E-4,-6.554308347E-4,1.678799141E-3
1.128736042E0,-5.767836701E-4,1.761565451E-3,7.758459542E-4,2.009410158E-3
1.138693042E0,-1.107817981E-3,5.564850289E-4,-1.826258376E-4,1.253111513E-3
1.148649042E0,5.976596149E-4,-3.019967582E-3,-2.526436001E-4,3.088888150E-3
1.158606042E0,-3.329704050E-3,-1.309705549E-4,-7.208273746E-4,3.409351031E-3
1.168563042E0,1.375679858E-4,2.281195251E-3,1.563471043E-3,2.768974256E-3
1.178519042E0,2.411650494E-4,8.342998917E-4,-1.756425481E-3,1.959399745E-3
1.188476042E0,4.230596824E-4,3.389352001E-3,6.733881310E-5,3.416316876E-3
1.198432042E0,3.602341283E-3,6.103435298E-4,-2.573006786E-4,3.662729253E-3
1.208389042E0,1.520602964E-4,1.206813613E-4,-9.407196194E-4,9.605413718E-4
1.218346042E0,9.723139228E-4,-3.155611921E-6,8.225592319E-4,1.273580784E-3
1.228302042E0,-4.046096001E-4,-1.931446604E-4,1.898996998E-3,1.951205624E-3
1.238259042E0,-1.339645591E-3,-5.662534386E-4,-1.847883686E-5,1.454522166E-3
1.248215042E0,-8.962838911E-4,-1.053715125E-3,-6.755273789E-4,1.539473162E-3
1.258172042E0,2.148508327E-3,6.357942475E-4,-1.026798505E-3,2.464677976E-3
1.268129042E0,-1.207185909E-3,-7.223127177E-4,-1.256559510E-3,1.886259601E-3
1.278085042E0,1.415228704E-3,9.341345867E-5,-3.683147952E-5,1.418786424E-3
1.288042042E0,3.694496350E-3,-4.481571959E-4,1.972717931E-3,4.212097363E-3
1.297998042E0,-2.959840931E-4,-9.855830576E-4,6.959985476E-4,1.242334305E-3
1.307955042E0,7.464804221E-4,-2.145644976E-4,1.206967048E-3,1.435284083E-3
1.317912042E0,1.254611532E-3,-3.482552711E-4,-2.714271192E-3,3.010415242E-3
1.327868042E0,-2.015966456E-4,1.249342109E-3,-5.367412232E-4,1.374622877E-3
1.337825042E0,-3.041282762E-4,-7.815845311E-4,-1.457395963E-3,1.681478927E-3
1.347781042E0,8.510282496E-4,1.234425232E-3,4.296870902E-4,1.559706937E-3
1.357738042E0,-1.615058864E-3,-8.076866507E-4,-1.689912751E-4,1.813651265E-3
1.367695042E0,-2.107499167E-3,1.144530484E-3,2.195360139E-5,2.398329571E-3
1.377651042E0,4.113907926E-5,7.439909969E-4,-2.567437943E-3,2.673378503E-3
1.387608042E0,-1.660819398E-3,-2.310599084E-4,-6.604520604E-4,1.802194961E-3
1.397565042E0,-1.217669342E-3,1.227287110E-3,7.275873795E-4,1.875722706E-3
1.407521042E0,5.703187780E-4,3.135144943E-4,-1.193122007E-3,1.359078721E-3
1.417478042E0,-1.480315113E-3,-6.686593406E-4,1.017035451E-3,1.916454867E-3
1.427434042E0,6.638286868E-4,-5.966212484E-4,2.385466360E-4,9.238668394E-4
1.437391042E0,2.019377658E-3,-1.535651740E-3,9.256422054E-4,2.700541776E-3
1.447348042E0,6.592600839E-4,1.015404123E-4,-1.182774082E-3,1.357898686E-3
1.457304042E0,-6.968216039E-4,5.733192666E-5,-7.836101577E-5,7.035536556E-4
1.467261042E0,-2.513546729E-3,1.049055951E-3,-1.856214367E-4,2.729998327E-3
1.477217042E0,-1.747621456E-3,8.975221426E-4,3.629897255E-4,1.997870940E-3
1.487174042E0,2.549799392E-3,-2.697501332E-4,-4.279143177E-4,2.599490861E-3
1.497131042E0,3.044883488E-4,-4.178361269E-5,6.788955070E-4,7.452235465E-4
1.507087042E0,2.874023747E-3,-1.536139869E-3,5.494109355E-4,3.304782984E-3
1.517044042E0,1.933128806E-3,1.958193723E-3,-6.631202996E-5,2.752436543E-3
1.527000042E0,-1.261962811E-3,3.918691364E-4,1.419299748E-3,1.939206882E-3
1.536957042E0,-5.503662396E-4,-1.777009107E-3,-1.055309549E-3,2.138771285E-3
1.546914042E0,-1.439356478E-3,-7.986595156E-4,1.288973494E-3,2.090707239E-3
1.556870042E0,3.737029620E-3,2.349729650E-3,1.282848185E-3,4.596990240E-3
1.566827042E0,9.614555165E-5,-7.664816803E-4,1.414191443E-3,1.611420359E-3
1.576783042E0,-1.491630916E-3,-1.700718654E-3,-1.124866307E-3,2.526406724E-3
1.586740042E0,-1.053882763E-3,9.698820650E-4,1.385737443E-3,1.992889450E-3
1.596697042E0,-1.510881120E-3,-7.814127021E-4,-9.565129876E-4,1.951482684E-3
1.606653042E0,1.485086279E-3,1.470017014E-3,1.937009394E-3,2.849287046E-3
1.616610042E0,1.660588663E-3,-4.980589147E-4,2.251295373E-4,1.748227874E-3
1.626566042E0,1.298971940E-3,7.188539603E-4,6.109811366E-4,1.605421149E-3
1.636523042E0,3.373308107E-3,-1.700894209E-3,-1.670016441E-3,4.130520985E-3
1.646480042E0,-1.614716137E-3,1.603190904E-4,-6.807204336E-4,1.759656422E-3
1.656436542E0,-1.210714690E-3,8.183862083E-4,-9.694071487E-4,1.753663670E-3
1.666393542E0,2.678779187E-3,2.477056812E-3,-1.386067830E-3,3.902928697E-3
1.676349542E0,-3.977562301E-5,1.949170837E-5,1.123961527E-3,1.124834006E-3
1.686306542E0,-1.532141119E-3,1.434216159E-3,9.688362479E-5,2.100909050E-3
1.696263542E0,8.338111220E-4,-1.146386843E-3,7.730603684E-4,1.614641172E-3
1.706219542E0,3.014720045E-3,-1.671917969E-3,1.058901893E-3,3.606261203E-3
1.716176542E0,1.302503515E-4,4.104075779E-4,-8.005173877E-4,9.089706387E-4
1.726132542E0,-1.041873358E-3,6.574703730E-4,-2.796938643E-3,3.056244944E-3
1.736089542E0,1.613430213E-4,7.357673021E-4,-4.957010970E-4,9.017231675E-4
1.746046542E0,-1.810800983E-3,-4.199706600E-4,7.100403309E-4,1.989857489E-3
1.756002542E0,3.295277711E-3,2.985501487E-4,-8.793342859E-4,3.423626173E-3
1.765959542E0,-1.050696475E-3,-8.210968808E-4,-4.762550816E-5,1.334328056E-3
1.775916542E0,-3.055438865E-4,6.220700452E-4,-1.011956017E-3,1.226532995E-3
1.785872542E0,2.466947772E-3,-1.492966316E-3,-1.557886135E-3,3.277466848E-3
1.795829542E0,1.348420163E-3,-9.904276812E-4,4.671814386E-4,1.737078704E-3
1.805785542E0,4.772713874E-4,1.211003982E-3,1.093906816E-3,1.700279608E-3
1.815742542E0,1.055710018E-3,-4.939516657E-4,8.163927123E-5,1.168407831E-3
1.825699542E0,1.115291379E-4,-6.299688248E-4,1.971208025E-3,2.072428659E-3
1.835655542E0,6.934298435E-4,-1.055009314E-3,5.075347144E-4,1.360691400E-3
1.845612542E0,-1.297174953E-3,-1.992005273E-4,-1.495623030E-3,1.989781886E-3
1.855568542E0,-3.145675175E-3,2.145180013E-3,-7.515358739E-4,3.880963252E-3
1.865525542E0,-9.152099956E-4,7.498743362E-4,1.686257077E-3,2.059947520E-3
1.875482542E0,1.114385086E-3,-1.852566609E-3,1.450034557E-3,2.603162956E-3
1.885438542E0,-2.368131652E-3,6.192248547E-4,1.789268339E-3,3.031990787E-3
1.895395542E0,-8.287304081E-5,3.219535341E-3,-4.152962938E-4,3.247267585E-3
1.905351542E0,1.542614307E-3,-6.832738873E-4,8.820930962E-4,1.903840943E-3
1.915308542E0,9.284893749E-4,-1.298689749E-4,1.142816618E-3,1.478170590E-3
1.925265542E0,1.892149681E-3,2.303114627E-3,8.673684206E-4,3.104334933E-3
1.935221542E0,1.177889877E-3,-2.865015762E-3,-6.511658430E-4,3.165399948E-3
1.945178542E0,-8.618007414E-4,1.178540871E-3,1.351730898E-4,1.466264256E-3
1.955134542E0,1.158739557E-3,5.114190280E-4,1.959176734E-5,1.266732260E-3
1.965091542E0,1.401563408E-3,4.655139055E-4,5.229746457E-4,1.566711736E-3
1.975048542E0,1.088109449E-3,-1.576864393E-3,-2.325010020E-3,3.012665777E-3
1.985004542E0,2.083928557E-3,4.804673081E-4,-1.772949472E-4,2.145935825E-3
1.994961542E0,3.719375702E-3,3.329282044E-4,-3.650477156E-4,3.752046992E-3
2.004917542E0,-6.795963272E-4,-1.898253686E-4,1.091925427E-3,1.300071528E-3
2.014874542E0,3.764420748E-3,-5.562762963E-4,-1.237275079E-3,4.001394320E-3
2.024831542E0,2.828180557E-3,-1.096205669E-4,1.331609674E-3,3.127907648E-3
2.034787542E0,2.377307275E-3,-1.749595162E-3,-1.129684038E-3,3.160515644E-3
2.044744542E0,8.079129038E-4,3.252956551E-3,-9.724190459E-4,3.489992605E-3
2.054700542E0,2.347752685E-3,1.146129798E-3,9.863357991E-4,2.792564143E-3
2.064657542E0,-1.434859354E-3,8.344764938E-4,1.001276774E-3,1.938485895E-3
2.074614542E0,-1.143775880E-3,-7.178800879E-4,-1.163074281E-3,1.782222452E-3
2.084570542E0,7.653102512E-4,1.301385462E-3,2.441657707E-3,2.870713546E-3
2.094527542E0,1.322177239E-3,-1.577605144E-4,1.155084465E-3,1.762742508E-3
2.104483542E0,1.057229820E-3,1.374303829E-3,1.179008977E-3,2.096785176E-3
2.114440542E0,4.415069707E-4,6.611092249E-4,8.378578350E-4,1.154988989E-3
2.124397542E0,2.406882355E-3,2.646806650E-3,-1.609325409E-3,3.922830150E-3
2.134353542E0,-7.785246707E-4,-1.484821318E-3,1.126273535E-3,2.019724507E-3
2.144310542E0,-1.423009438E-3,-5.062152632E-4,1.043250784E-3,1.835642109E-3
2.154266542E0,-1.982215326E-4,1.238155179E-3,1.388411038E-4,1.261585064E-3
2.164223542E0,-1.891034190E-4,-1.410913537E-4,5.772477016E-5,2.428971434E-4
2.174180542E0,1.521178521E-3,-2.148608910E-4,-1.519665588E-3,2.160910177E-3
2.184136542E0,4.792723339E-4,1.006526873E-3,2.476230729E-3,2.715606183E-3
2.194093542E0,-2.552275546E-4,4.906725371E-4,3.650877625E-5,5.542865090E-4
2.204050542E0,1.562344842E-4,-7.544883993E-4,-2.700163051E-3,2.807942746E-3
2.214006542E0,4.651612835E-4,8.348861593E-4,1.488456503E-3,1.768873279E-3
2.223963542E0,-1.880992204E-4,9.653905872E-4,1.001312397E-3,1.403562190E-3
2.233919542E0,1.316320384E-3,-4.364973865E-4,-3.092875704E-5,1.387150284E-3
2.243876542E0,1.232930110E-3,-5.560283316E-4,-3.484077752E-5,1.352958995E-3
2.253833542E0,-7.220965344E-4,-1.044718316E-3,2.716891468E-4,1.298720431E-3
2.263789542E0,-8.941632695E-4,2.301261527E-3,-3.392295912E-4,2.492069278E-3
2.273746542E0,1.225180225E-3,4.644792643E-4,4.338859580E-4,1.380240775E-3
2.283702542E0,2.634261968E-3,5.489746109E-4,-2.182386816E-4,2.699692086E-3
2.293659542E0,1.609844621E-4,-3.362601274E-4,3.362314310E-4,5.020343071E-4
2.303616542E0,1.813399838E-3,7.472712896E-4,-3.839544952E-4,1.998563086E-3
2.313572542E0,9.611883434E-4,2.820170484E-4,-3.645136021E-4,1.065967548E-3
2.323529542E0,-3.293612972E-4,-6.151612615E-5,8.283900097E-4,8.935844146E-4
2.333485542E0,1.409150194E-3,1.576620270E-4,-1.170046162E-3,1.838360576E-3
2.343442542E0,4.671189236E-4,-1.244035782E-3,-1.662888099E-3,2.128619728E-3
2.353399542E0,-3.405916272E-3,-9.383049328E-4,-2.125479281E-3,4.122904798E-3
2.363355542E0,7.055642782E-4,-1.637958921E-4,1.625292934E-4,7.423380740E-4
2.373312542E0,4.634829238E-4,-1.391779399E-3,3.793104552E-4,1.515170860E-3
2.383268542E0,2.390283626E-4,2.152477391E-3,1.081004739E-3,2.420509187E-3
2.393225542E0,1.953837695E-3,2.967866894E-4,3.006470157E-3,3.597836416E-3
2.403182542E0,-8.379232604E-4,1.918425318E-3,1.210314222E-4,2.096931018E-3
2.413138542E0,-2.068037400E-3,-2.374036121E-4,-1.131985802E-3,2.369500162E-3
2.423095542E0,-5.067612510E-4,5.458740634E-4,-1.253088471E-3,1.457743521E-3
2.433051542E0,1.622702344E-3,2.740851603E-3,1.384239644E-3,3.472974201E-3
2.443008542E0,-8.082550485E-4,4.642447748E-4,3.737595398E-4,1.004238830E-3
2.452965542E0,3.478231374E-4,1.614197739E-3,-2.169297077E-4,1.665435011E-3
2.462921542E0,2.191961510E-3,-3.492629039E-4,3.398678033E-3,4.059272374E-3
2.472878542E0,-3.090130631E-4,-8.842920070E-4,6.455020048E-4,1.137600222E-3
2.482834542E0,-1.030601561E-4,-2.340191510E-3,-7.281992584E-4,2.453037272E-3
2.492791542E0,-1.881252974E-3,-1.888900297E-4,-1.241123769E-3,2.261676460E-3
2.502748542E0,7.322150050E-4,-1.165553113E-4,5.916659720E-4,9.485739700E-4
2.512704542E0,6.748992018E-5,-1.522704493E-3,-5.838531069E-4,1.632197388E-3
2.522661542E0,1.510486705E-3,1.723455032E-3,-6.379643455E-4,2.378837078E-3
2.532617542E0,-9.966036305E-5,1.391405240E-4,1.521592960E-3,1.531188234E-3
2.542574542E0,1.215487602E-3,1.034292625E-3,2.993780654E-4,1.623822211E-3
2.552531542E0,-1.978520304E-4,1.812201925E-3,-1.789256930E-4,1.831730233E-3
2.562487542E0,1.877801260E-3,9.864151943E-4,-6.259167567E-4,2.211543419E-3
2.572444542E0,2.739334013E-3,-2.191978274E-4,1.285167644E-3,3.033752527E-3
2.582400542E0,3.341151867E-3,4.723159946E-4,-4.339739680E-4,3.402162783E-3
2.592357542E0,6.391087081E-4,2.071011579E-3,1.436658204E-4,2.172139215E-3
2.602314542E0,1.697286381E-3,2.308137715E-3,1.076991204E-3,3.060750043E-3
2.612270542E0,2.472798806E-3,1.807996072E-3,2.172615612E-3,3.755508265E-3
2.622227542E0,1.659957925E-3,-5.090314080E-4,1.503525535E-3,2.296772152E-3
2.632184542E0,6.898562424E-5,-1.916245790E-3,8.451922331E-4,2.095496804E-3
2.642140542E0,3.744310699E-3,-1.380077447E-4,5.777326878E-4,3.791132260E-3
2.652097542E0,7.613039343E-4,2.111564390E-3,3.657450434E-4,2.274215753E-3
2.662053333E0,-3.279075027E-4,-1.867293147E-3,-1.411560923E-3,2.363643642E-3
2.672010333E0,-7.585408166E-4,1.121838926E-3,2.444429789E-3,2.794484521E-3
2.681967333E0,-2.636398189E-3,-2.157710493E-3,9.834207594E-5,3.408222578E-3
2.691923333E0,-2.579140011E-3,-1.271143905E-3,1.878244802E-4,2.881501008E-3
2.701880333E0,1.316290931E-3,-1.049356651E-4,-1.548777334E-3,2.035275053E-3
2.711836333E0,1.610037638E-3,-9.135354776E-5,1.621982083E-3,2.287223763E-3
2.721793333E0,4.302153829E-4,1.088350313E-3,-3.273147158E-4,1.215206403E-3
2.731750333E0,-1.172741177E-3,-7.279254496E-4,5.528598558E-4,1.486893186E-3
2.741706333E0,9.004588937E-4,-3.256619675E-5,-1.747355331E-3,1.965995277E-3
2.751663333E0,-2.746740123E-3,1.946428791E-3,1.725172624E-4,3.370894325E-3
2.761619333E0,-4.142008256E-4,-7.013155264E-4,-1.702105161E-3,1.886946679E-3
2.771576333E0,1.438560314E-3,-3.290055902E-4,-1.976853237E-4,1.488885469E-3
2.781533333E0,-1.765285386E-3,8.090435294E-4,-1.731817611E-4,1.949557860E-3
2.791489333E0,3.990654368E-4,6.069528172E-5,-1.042704098E-3,1.118109555E-3
2.801446333E0,2.919952385E-4,1.715773833E-3,6.442749873E-5,1.741634855E-3
2.811402333E0,-1.247311942E-3,-5.828004796E-4,-1.277006697E-3,1.877815109E-3
2.821359333E0,-9.116232395E-4,-1.570698456E-3,-5.433247425E-4,1.895613976E-3
2.831316333E0,-3.795237280E-4,-5.115594249E-4,-3.638276830E-4,7.335542845E-4
2.841272333E0,-6.899824366E-4,4.384393978E-4,-1.435568091E-3,1.652017134E-3
2.851229333E0,1.494075870E-3,-1.198339392E-3,-1.512000803E-3,2.440169345E-3
2.861185333E0,1.274799695E-3,-8.648327785E-4,7.269058842E-4,1.703362017E-3
2.871142333E0,5.810462171E-4,-1.336212270E-3,1.104275696E-3,1.828251282E-3
2.881099333E0,-1.965369331E-3,-4.098562058E-4,-1.032903790E-3,2.257775223E-3
2.891055333E0,9.704992408E-4,-7.003685459E-5,1.527355053E-4,9.849375980E-4
2.901012333E0,-4.506600089E-5,-7.129726582E-4,-1.213932410E-5,7.144986487E-4
2.910968333E0,-1.921795309E-3,-2.291428391E-3,-1.522214152E-4,2.994513757E-3
2.920925333E0,-2.440887038E-4,7.502463413E-4,-1.415182371E-3,1.620243812E-3
2.930882333E0,-1.460620668E-3,-4.470726708E-5,1.350776758E-3,1.989977217E-3
2.940838333E0,1.534191309E-3,-7.128887810E-4,1.191482879E-4,1.695921491E-3
2.950795333E0,-2.517246176E-4,-1.056702924E-3,1.996143954E-3,2.272570579E-3
2.960752333E0,-1.932926010E-3,1.214422518E-3,1.063905656E-4,2.285244837E-3
2.970708333E0,-1.635218505E-4,-2.573924139E-3,-9.410306811E-4,2.745425944E-3
2.980665333E0,-1.230178401E-3,1.124778180E-3,1.905794954E-3,2.531900326E-3
2.990621333E0,-6.717583165E-5,1.649748883E-4,-1.289199106E-3,1.301446750E-3
3.000578333E0,1.940807444E-3,-1.442474895E-3,-1.908964477E-4,2.425676980E-3
3.010535333E0,-1.099723624E-3,-7.138340734E-4,-1.538189594E-3,2.021132940E-3
3.020491333E0,2.372689079E-3,1.288670464E-4,-1.314298250E-3,2.715444728E-3
3.030448333E0,7.883744547E-4,-4.154830822E-4,-1.680618152E-5,8.913152754E-4
3.040404333E0,-2.597122919E-3,1.072123763E-3,-4.777009599E-4,2.850034215E-3
3.050361333E0,1.484437846E-3,-1.534629846E-4,-2.286951058E-4,1.509770862E-3
3.060318333E0,5.025218707E-4,1.338819973E-3,-4.795091227E-4,1.508275886E-3
3.070274333E0,1.558731543E-3,1.350804232E-3,-1.317605842E-3,2.447529622E-3
3.080231333E0,-1.031455351E-3,2.684960607E-3,1.525839325E-4,2.880311695E-3
3.090187333E0,1.528641442E-3,3.033302026E-3,1.760067884E-3,3.825637828E-3
3.100144333E0,3.691787599E-3,1.753445249E-3,-1.195240766E-4,4.088783672E-3
3.110101333E0,3.203630215E-3,3.835771000E-3,6.514608394E-4,5.039919339E-3
3.120057333E0,3.031337634E-3,2.741157543E-3,-1.783253159E-3,4.459029531E-3
3.130014333E0,9.866477922E-5,-1.861850033E-3,7.821701001E-4,2.021882872E-3
3.139970333E0,4.092466552E-4,1.463721157E-3,7.606798317E-4,1.699587084E-3
3.149927333E0,8.156449767E-4,1.081721275E-4,-1.051137224E-4,8.294738283E-4
3.159884333E0,1.731049968E-3,-1.497797901E-3,-2.816471271E-3,3.629386031E-3
3.169840333E0,2.453565598E-3,-3.749766853E-3,-1.264126040E-4,4.482936062E-3
3.179797333E0,-1.839431934E-5,-3.908984363E-4,3.157944884E-4,5.028579296E-4
3.189753333E0,-2.466904698E-3,2.104483545E-3,-3.302884288E-4,3.259380344E-3
3.199710333E0,3.603472142E-4,8.388559218E-4,6.462712772E-4,1.118568700E-3
3.209667333E0,1.138522872E-3,2.037811093E-3,-1.478931401E-3,2.763357825E-3
3.219623333E0,4.820466274E-4,1.779276179E-3,1.174699515E-3,2.185889207E-3
3.229580333E0,-1.930510858E-3,2.025085967E-3,2.244491130E-3,3.586862944E-3
3.239536333E0,-1.774335746E-3,2.288013930E-4,-1.073167659E-4,1.792242814E-3
3.249493333E0,1.342095551E-3,1.184343593E-3,-1.118518878E-3,2.110681097E-3
3.259450333E0,-1.308736857E-3,1.910473569E-3,8.653018158E-4,2.472134432E-3
3.269406333E0,1.301690936E-4,-1.668814919E-3,1.201494597E-4,1.678190430E-3
3.279363333E0,2.131492598E-3,-3.701716778E-4,1.054522581E-4,2.165965823E-3
3.289319333E0,-5.148905329E-4,1.796043478E-3,4.370156676E-4,1.918819202E-3
3.299276333E0,-2.741429256E-3,-5.957480753E-4,-5.602124147E-4,2.860802000E-3
3.309233333E0,2.350002062E-3,1.569934539E-3,1.239285339E-3,3.085941071E-3
3.319189333E0,-9.532535914E-4,-6.989463000E-4,5.983621813E-4,1.324860611E-3
3.329146333E0,-2.107734093E-3,4.901551292E-4,1.833802555E-3,2.836481424E-3
3.339103333E0,1.631703111E-3,-1.220410690E-3,3.689753357E-4,2.070748679E-3
3.349059333E0,-1.556366915E-3,-4.662036081E-4,-7.257657126E-5,1.626312128E-3
3.359016333E0,1.690205885E-3,-2.629759023E-3,6.768961903E-4,3.198533555E-3
3.368972333E0,-1.607053680E-3,-1.381801907E-3,4.907413386E-4,2.175505712E-3
3.378929333E0,-3.106106538E-3,-9.111480904E-4,-1.228321344E-5,3.237010897E-3
3.388886333E0,2.075606026E-3,-2.115356619E-4,-1.306313090E-3,2.461572993E-3
3.398842333E0,1.748264651E-3,4.406828433E-3,-6.638253108E-4,4.787194395E-3
3.408799333E0,-1.353891566E-4,1.567366067E-3,-9.497441351E-5,1.576066862E-3
3.418755333E0,3.900644369E-4,-2.577923238E-3,-5.510733463E-4,2.664867787E-3
3.428712333E0,-1.404107083E-3,8.703377680E-4,7.288418710E-4,1.805606547E-3
3.438669333E0,1.310685417E-3,-1.924899057E-3,-1.761647873E-4,2.335415739E-3
3.448625333E0,-1.499215839E-3,-1.294528949E-3,-7.656263188E-5,1.982250027E-3
3.458582333E0,1.975405496E-3,-5.681039765E-3,-1.330567989E-3,6.160101530E-3
3.468538333E0,1.919212751E-3,-8.217168041E-3,-2.289572265E-3,8.743418630E-3
3.478495333E0,2.461826894E-3,-5.694603082E-3,-7.584621198E-4,6.250148855E-3
3.488452333E0,1.988583244E-3,-9.040332399E-3,-3.461570479E-3,9.882537295E-3
3.498408333E0,2.657974139E-3,-7.664855570E-3,-2.778237686E-3,8.575164259E-3
3.508365333E0,3.518973943E-3,-8.906421252E-3,-5.302648060E-3,1.094648773E-2
3.518321333E0,2.249099314E-3,-6.109036505E-3,-3.456261940E-3,7.370517034E-3
3.528278333E0,7.289669011E-4,-1.212549047E-3,-1.754235476E-3,2.253665911E-3
3.538235333E0,4.285505507E-3,-5.576606374E-3,-1.362784300E-3,7.163887014E-3
3.548191333E0,5.008872831E-4,-4.170191009E-3,-1.975844149E-3,4.641695942E-3
3.558148333E0,-4.746660125E-3,5.385413766E-3,6.482468452E-4,7.207890658E-3
3.568104333E0,-4.997530021E-3,1.290138718E-2,2.105262363E-3,1.399475713E-2
3.578061333E0,-1.257466618E-2,2.166941389E-2,2.301310189E-3,2.515912869E-2
3.588018333E0,-2.467660233E-2,3.392315283E-2,-8.651884273E-4,4.195787831E-2
3.597974333E0,-3.835971281E-2,5.714695528E-2,-1.174849272E-2,6.982312759E-2
3.607931333E0,-6.083999202E-2,6.781158596E-2,-5.145169795E-2,1.046288347E-1
3.617887333E0,-9.333816171E-2,9.475341439E-2,-1.142129377E-1,1.753134824E-1
3.627844333E0,-1.220185459E-1,1.387895793E-1,-1.832410097E-1,2.602466916E-1
3.637801333E0,-1.249754578E-1,1.133243516E-1,-2.391660511E-1,2.926801560E-1
3.647757333E0,-1.198893562E-1,7.898554951E-2,-2.540501952E-1,2.918110287E-1
3.657714208E0,-1.209271774E-1,4.513579607E-2,-2.306439430E-1,2.643052227E-1
3.667670208E0,-1.616098881E-1,6.828691810E-2,-1.931474358E-1,2.609344574E-1
3.677627208E0,-2.277552336E-1,1.979391575E-1,-1.552052349E-1,3.393243602E-1
3.687584208E0,-3.607710898E-1,3.100933731E-1,-1.976030320E-1,5.151316701E-1
3.697540208E0,-5.870178938E-1,3.733604550E-1,-3.097555339E-1,7.615356379E-1
3.707497208E0,-8.622875810E-1,3.175696433E-1,-4.077414870E-1,1.005307650E0
3.717454208E0,-1.221446514E0,1.822315007E-1,-4.875442386E-1,1.327719583E0
3.727410208E0,-1.503339291E0,1.400462240E-1,-5.115132332E-1,1.594141699E0
3.737367208E0,-1.650866747E0,2.012809664E-1,-4.806906879E-1,1.731166826E0
3.747323208E0,-1.698947549E0,2.078057081E-1,-3.718664646E-1,1.751539510E0
3.757280208E0,-1.643859267E0,2.259421647E-1,-1.576626003E-1,1.666787523E0
3.767237208E0,-1.575018644E0,2.531407773E-1,1.302935481E-1,1.600543780E0
3.777193208E0,-1.635466099E0,7.541046292E-2,4.681001008E-1,1.702807623E0
3.787150208E0,-1.853767514E0,-4.288228750E-1,1.015919209E0,2.156950369E0
3.797106208E0,-1.848350644E0,-5.296959281E-1,1.562189460E0,2.477380429E0
3.807063208E0,-1.793532372E0,-1.952562034E-1,1.794233918E0,2.544436815E0
3.817020208E0,-1.784033537E0,4.243946970E-1,1.620170116E0,2.447005870E0
3.826976208E0,-1.726201177E0,9.986057878E-1,1.508813500E0,2.500700342E0
3.836933208E0,-1.758527040E0,1.294183373E0,1.285646319E0,2.533814203E0
3.846889208E0,-1.745498300E0,1.254893184E0,1.052696705E0,2.393677415E0
3.856846208E0,-1.664522052E0,9.392766356E-1,9.274265170E-1,2.124380899E0
3.866803208E0,-1.505611539E0,5.726858974E-1,8.668723702E-1,1.829290286E0
3.876759208E0,-1.256777167E0,2.318368703E-1,8.046582341E-1,1.510202654E0
3.886716208E0,-9.491195083E-1,7.426560670E-2,6.986591220E-1,1.180875857E0
3.896672208E0,-5.843478441E-1,8.598158509E-2,5.055248737E-1,7.774385081E-1
3.906629208E0,-2.052274197E-1,2.156437039E-1,2.969444990E-1,4.204718021E-1
3.916586208E0,-8.077116609E-1,-6.056124568E-1,-6.995378435E-2,1.011957562E0
3.926542208E0,-1.296134830E0,-2.067294359E0,-8.381099999E-2,2.441453614E0
3.936499208E0,-1.413225412E0,-2.908310413E0,7.438908517E-2,3.234348352E0
3.946455208E0,-1.407122850E0,-4.262876987E0,1.647080630E-1,4.492131306E0
3.956412208E0,-8.643301129E-1,-3.957424402E0,4.098815843E-2,4.050920201E0
3.966369208E0,-4.304641858E-2,4.904110134E-1,2.015195191E-1,5.319455543E-1
3.976325208E0,-4.385989904E-1,1.182687044E0,3.057306707E-1,1.297917163E0
3.986282208E0,-7.604351044E-1,1.311695129E-1,5.616620779E-1,9.544271993E-1
3.996238208E0,-1.183197498E0,-7.991580367E-1,5.913094878E-1,1.545398589E0
4.006195208E0,-1.384534240E0,-5.538049936E-1,6.658854485E-1,1.633106997E0
4.016152208E0,-1.445055604E0,1.698542386E-1,6.178264618E-1,1.580742135E0
4.026108208E0,-1.497706056E0,1.796823591E-1,4.842766523E-1,1.584276824E0
4.036065208E0,-1.389266610E0,-4.049082473E-2,3.068516254E-1,1.423326786E0
4.046021208E0,-1.252872467E0,-3.451684117E-1,1.209105030E-1,1.305162825E0
4.055978208E0,-1.125784874E0,-4.042394161E-1,-6.608317047E-2,1.197985006E0
4.065935208E0,-9.539926648E-1,-1.669235379E-1,-2.388837039E-1,9.975123538E-1
4.075891208E0,-7.882987261E-1,2.161062323E-2,-3.720012307E-1,8.719328049E-1
4.085848208E0,-6.830753684E-1,3.497048616E-1,-3.773059547E-1,8.551287813E-1
4.095804208E0,-5.818893909E-1,6.184618473E-1,-3.550525606E-1,9.204089529E-1
4.105761208E0,-2.738490105E-1,7.620712519E-1,-3.469378948E-1,8.809720633E-1
4.115718208E0,4.391459376E-2,7.764347196E-1,-3.934094012E-1,8.715218427E-1
4.125674208E0,-1.828353107E-2,6.840432882E-1,-3.422141075E-1,7.650882322E-1
4.135631208E0,-7.773653865E-1,-3.912476897E-1,-9.004807472E-2,8.749173416E-1
4.145588208E0,-1.278167725E0,-5.838027596E-1,1.162321270E-1,1.409981667E0
4.155544208E0,-1.325355411E0,2.442546636E-1,2.468831688E-1,1.370101677E0
4.165501208E0,-1.113780618E0,5.874807239E-1,2.455830127E-1,1.282946562E0
4.175457208E0,-7.724010944E-1,9.166615605E-1,1.648064703E-1,1.209972330E0
4.185414208E0,-6.107006073E-1,5.105249882E-1,7.247813791E-2,7.992772209E-1
4.195371208E0,-6.623174548E-1,-2.704399824E-1,-4.034583271E-2,7.165402859E-1
4.205327208E0,-6.060932875E-1,-5.052234530E-1,-7.853475958E-2,7.929486232E-1
4.215284208E0,-4.183465838E-1,-4.366179407E-1,-5.865772441E-2,6.075276281E-1
4.225240208E0,-3.058850169E-1,-2.102636248E-1,-7.643537968E-2,3.789707149E-1
4.235197208E0,-3.096514344E-1,-8.983324468E-2,-1.280950606E-1,3.469327993E-1
4.245153208E0,-3.213496208E-1,3.041033819E-2,-1.684667170E-1,3.641035597E-1
4.255110208E0,-3.192408085E-1,6.622679532E-2,-1.749031693E-1,3.699889199E-1
4.265067208E0,-3.447232544E-1,-9.934965521E-2,-1.310984343E-1,3.819571646E-1
4.275023208E0,-3.477280140E-1,-4.921669886E-2,-5.915281922E-2,3.561405778E-1
4.284980208E0,-2.346531451E-1,-5.092378333E-2,1.974040084E-2,2.409253279E-1
4.294937208E0,-1.424860358E-1,-3.762110770E-1,2.041999251E-2,4.028076724E-1
4.304893208E0,-1.933002174E-1,-8.014148474E-1,-2.743914165E-2,8.248537071E-1
4.314850208E0,-3.092650771E-1,-7.552871704E-1,-4.924504086E-2,8.176360265E-1
4.324806208E0,-1.627307832E-1,-7.860624194E-1,-2.221848257E-2,8.030374188E-1
4.334763208E0,1.972750872E-1,-8.696332574E-1,-3.155314550E-2,8.922864245E-1
4.344720208E0,5.078076720E-1,-1.189554334E0,-1.063315123E-1,1.297772914E0
4.354676208E0,7.472344041E-1,-1.406241059E0,-2.096687406E-1,1.606186213E0
4.364633208E0,9.496285319E-1,-1.612504959E0,-3.105508685E-1,1.896947135E0
4.374589208E0,1.182360291E0,-1.758434415E0,-4.504528344E-1,2.166327585E0
4.384546208E0,1.559030056E0,-1.541365743E0,-4.775294662E-1,2.243750757E0
4.394503208E0,1.917127490E0,-1.029607296E0,-4.233986735E-1,2.216920259E0
4.404459208E0,2.145805836E0,-4.175929129E-1,-3.775970936E-1,2.218433251E0
4.414416208E0,2.226596832E0,3.026334643E-1,-3.343290687E-1,2.271804656E0
4.424372208E0,2.203351736E0,1.214022040E0,-2.644021809E-1,2.529528988E0
4.434329208E0,2.091822386E0,2.007458448E0,-2.298136503E-1,2.908337090E0
4.444286208E0,2.017919779E0,2.458146811E0,-2.476557642E-1,3.189956011E0
4.454242208E0,2.025788069E0,2.528628349E0,-3.087596893E-1,3.254706004E0
4.464199208E0,2.034569502E0,2.140064001E0,-4.002621770E-1,2.979858520E0
4.474155208E0,2.030415773E0,1.532388568E0,-4.843412638E-1,2.589476664E0
4.484112208E0,1.942402601E0,9.883087277E-1,-5.311862230E-1,2.243176500E0
4.494069208E0,1.655835867E0,6.197590232E-1,-5.507538915E-1,1.851816274E0
4.504025208E0,1.225145221E0,4.067873657E-1,-5.739017725E-1,1.412734942E0
4.513982208E0,7.881984115E-1,1.146339849E-1,-5.951641202E-1,9.942927216E-1
4.523939208E0,4.808486104E-1,-2.306983769E-1,-6.728746295E-1,8.586019999E-1
4.533895208E0,3.198887408E-1,-5.391699672E-1,-7.971699834E-1,1.014156320E0
4.543852208E0,2.323711514E-1,-7.710719109E-1,-9.756209254E-1,1.265063016E0
4.553808208E0,1.815037131E-1,-8.273525238E-1,-1.179480314E0,1.452112120E0
4.563765208E0,1.304961890E-1,-6.024560332E-1,-1.404403687E0,1.533731477E0
4.573722208E0,1.067937762E-1,-2.340749055E-1,-1.640005946E0,1.660064901E0
4.583678208E0,2.138256878E-1,1.755066961E-2,-1.736898303E0,1.750098616E0
4.593635208E0,3.727142215E-1,1.491868496E-2,-1.733110189E0,1.772797052E0
4.603591208E0,4.902040958E-1,-2.912159562E-1,-1.768628001E0,1.858265803E0
4.613548208E0,5.956836343E-1,-6.040276289E-1,-1.845524430E0,2.031169316E0
4.623505208E0,6.511517167E-1,-8.529242873E-1,-1.917440891E0,2.197284226E0
4.633461208E0,6.381517649E-1,-1.073673368E0,-1.960861921E0,2.324863792E0
4.643418208E0,5.588675737E-1,-1.244679570E0,-1.927127123E0,2.361224078E0
4.653374208E0,4.055684507E-1,-1.742035627E0,-2.018122435E0,2.696663134E0
4.663331167E0,1.787696630E-1,-2.663612366E0,-2.307089090E0,3.528377743E0
4.673288167E0,-1.483254433E-1,-3.593271732E0,-2.662993193E0,4.474945243E0
4.683244167E0,-4.873628914E-1,-4.224809170E0,-2.910447121E0,5.153371474E0
4.693201167E0,-6.695191264E-1,-3.950854063E0,-2.936503172E0,4.967952754E0
4.703157167E0,-5.880130529E-1,-2.755337238E0,-2.729119062E0,3.922465233E0
4.713114167E0,-2.124971151E-1,-1.186746120E0,-2.381392717E0,2.669185766E0
4.723071167E0,3.839873075E-1,1.809672862E-1,-1.903993845E0,1.950740365E0
4.733027167E0,1.060570121E0,1.207763672E0,-1.463614345E0,2.173860395E0
4.742984167E0,1.734775186E0,2.100460291E0,-1.146161556E0,2.955514285E0
4.752940167E0,2.343730688E0,2.847116232E0,-8.947443366E-1,3.794695219E0
4.762897167E0,2.839729548E0,3.232655764E0,-8.154010773E-1,4.379384215E0
4.772854167E0,3.275173187E0,3.011162519E0,-8.675311208E-1,4.532821348E0
4.782810167E0,3.610929012E0,2.132914305E0,-8.764867783E-1,4.284432382E0
4.792767167E0,3.724874496E0,8.333084583E-1,-7.940511703E-1,3.898667755E0
4.802723167E0,3.632223845E0,-3.383514583E-1,-6.385923624E-1,3.703421657E0
4.812680167E0,3.402508020E0,-8.982535005E-1,-4.998814762E-1,3.554405952E0
4.822637167E0,3.001571894E0,-9.263333082E-1,-4.846761525E-1,3.178433294E0
4.832593167E0,2.583692789E0,-6.176987290E-1,-4.459080696E-1,2.693669273E0
4.842550167E0,2.199578285E0,-1.511624306E-1,-3.275451660E-1,2.228964008E0
4.852506167E0,1.935075521E0,3.968837261E-1,-2.354341745E-1,1.989337381E0
4.862463167E0,1.819702625E0,8.701905608E-1,-1.352649629E-1,2.021594882E0
4.872420167E0,1.821593523E0,1.093606234E0,-3.737047687E-2,2.124988026E0
4.882376167E0,1.961659074E0,1.013479233E0,-8.971624076E-2,2.209817975E0
4.892333167E0,2.288834810E0,8.148537278E-1,-2.660041749E-1,2.444076432E0
4.902289167E0,2.778185844E0,7.137939334E-1,-3.908278942E-1,2.894920518E0
4.912246167E0,3.326013803E0,7.286356091E-1,-4.452127516E-1,3.433874207E0
4.922203167E0,3.737004280E0,8.355820179E-1,-5.018747449E-1,3.862030108E0
4.932159167E0,3.850653410E0,1.017331004E0,-5.270035863E-1,4.017490116E0
4.942116167E0,3.650858402E0,1.228594780E0,-5.422930717E-1,3.890024933E0
4.952072167E0,3.234690428E0,1.747688293E0,-5.906100273E-1,3.723769158E0
4.962029167E0,2.671085358E0,2.578938723E0,-6.410399079E-1,3.767831483E0
4.971986167E0,2.003275633E0,3.334408283E0,-7.158951163E-1,3.955236741E0
4.981942167E0,1.400162816E0,4.148493290E0,-8.493546247E-1,4.460028673E0
4.991899167E0,1.092768908E0,4.903955936E0,-1.046802759E0,5.132126628E0
5.001855167E0,9.365776777E-1,5.057724953E0,-1.089424610E0,5.257813750E0
5.011812167E0,8.927694559E-1,4.883071423E0,-9.459103346E-1,5.053332582E0
5.021769167E0,1.008786321E0,5.014970779E0,-7.692239881E-1,5.172937976E0
5.031725167E0,1.203835726E0,5.152212620E0,-5.765771270E-1,5.322307443E0
5.041682167E0,1.392004848E0,5.129951000E0,-3.276554346E-1,5.325545310E0
5.051638167E0,1.369427919E0,4.485722065E0,-3.193690255E-2,4.690208443E0
5.061595167E0,9.178580046E-1,2.637172222E0,3.849428594E-1,2.818744694E0
5.071552167E0,4.985654950E-1,7.340885997E-1,6.053174138E-1,1.074180058E0
5.081508167E0,4.267799854E-1,-2.981401384E-1,4.860242605E-1,7.122136476E-1
5.091465167E0,4.911950827E-1,-8.839120865E-1,2.819000483E-1,1.049781322E0
5.101422167E0,5.561093688E-1,-9.995326996E-1,1.165805832E-1,1.149745311E0
5.111378167E0,5.504696965E-1,-1.129080057E0,5.931639299E-2,1.257520217E0
5.121335167E0,4.980767667E-1,-1.323285222E0,5.503988639E-2,1.414988916E0
5.131291167E0,3.092587292E-1,-1.382714748E0,1.582223736E-2,1.416965554E0
5.141248167E0,-9.342505783E-2,-1.463422656E0,-7.174969465E-2,1.468156031E0
5.151205167E0,-6.023012400E-1,-1.319073439E0,-1.180154085E-1,1.454870839E0
5.161161167E0,-1.036739469E0,-7.360643148E-1,-7.667676359E-2,1.273773421E0
5.171118167E0,-1.499298096E0,-3.382345736E-1,8.538520336E-2,1.539346627E0
5.181074167E0,-1.886088967E0,-2.527478933E-1,3.038645387E-1,1.927056498E0
5.191031167E0,-2.110289097E0,-3.686018884E-1,5.798558593E-1,2.219328782E0
5.200988167E0,-2.206457138E0,-5.394394398E-1,8.013712168E-1,2.408660175E0
5.210944167E0,-2.263164997E0,-6.914139390E-1,8.552613854E-1,2.516235497E0
5.220901167E0,-2.320970297E0,-8.829146624E-1,6.915405989E-1,2.577725707E0
5.230857167E0,-2.320814610E0,-6.894919872E-1,3.291159272E-1,2.443337256E0
5.240814167E0,-2.170280457E0,-1.424446106E-1,-1.282822639E-1,2.178729920E0
5.250771167E0,-1.919465303E0,3.558057249E-1,-5.274414420E-1,2.022162021E0
5.260727167E0,-1.641016841E0,6.262987256E-1,-7.511331439E-1,1.910336977E0
5.270684167E0,-1.403033495E0,5.982409120E-1,-8.124257326E-1,1.728129262E0
5.280640167E0,-1.170684934E0,4.744124711E-1,-7.466304302E-1,1.467319804E0
5.290597167E0,-1.033208251E0,1.093059555E-1,-6.526573300E-1,1.226959116E0
5.300554167E0,-1.027935505E0,-6.162360907E-1,-7.362089753E-1,1.406556781E0
5.310510167E0,-9.134491682E-1,-1.210252762E0,-9.908530712E-1,1.811322980E0
5.320467167E0,-5.418261290E-1,-1.201491475E0,-1.194237113E0,1.778583594E0
5.330423167E0,-1.337531805E-1,-9.828945398E-1,-1.238386393E0,1.586685995E0
5.340380167E0,3.125280887E-2,-1.010710955E0,-1.252412438E0,1.609673969E0
5.350337167E0,2.732371166E-2,-1.197525740E0,-1.422271132E0,1.859481018E0
5.360293167E0,-7.862208877E-4,-1.306107879E0,-1.691519618E0,2.137090786E0
5.370250167E0,-1.015309058E-2,-1.362085104E0,-2.021637440E0,2.437703192E0
5.380206167E0,-5.130292475E-2,-1.343704581E0,-2.430346012E0,2.777544911E0
5.390163167E0,-1.800096631E-1,-1.477298975E0,-2.849499941E0,3.214726373E0
5.400120167E0,-3.603474796E-1,-1.778282523E0,-3.138741493E0,3.625443035E0
5.410076167E0,-4.805916846E-1,-2.057000160E0,-3.261405945E0,3.885741469E0
5.420033167E0,-4.679352939E-1,-1.933050036E0,-3.315140247E0,3.865979920E0
5.429989167E0,-4.234557748E-1,-1.460153222E0,-3.340031862E0,3.669764988E0
5.439946167E0,-3.759188652E-1,-7.576925755E-1,-3.301855564E0,3.408469334E0
5.449903167E0,-3.527249098E-1,-6.089634821E-2,-3.241966963E0,3.261667214E0
5.459859167E0,-4.131246209E-1,3.014717102E-1,-3.260540009E0,3.300405777E0
5.469816167E0,-5.818395615E-1,1.889508516E-1,-3.278856277E0,3.335436731E0
5.479772167E0,-7.290117145E-1,-3.822710812E-1,-3.157127142E0,3.262673911E0
5.489729167E0,-6.978142262E-1,-8.543971777E-1,-2.831342220E0,3.038657269E0
5.499686167E0,-5.438477993E-1,-1.057648420E0,-2.350269794E0,2.634038480E0
5.509642167E0,-3.304896653E-1,-1.113836765E0,-1.839734912E0,2.175886096E0
5.519599167E0,3.262275457E-2,-8.565162420E-1,-1.321155071E0,1.574844449E0
5.529555167E0,4.096272886E-1,-1.317544103E0,-9.869019985E-1,1.696376295E0
5.539512167E0,4.912555814E-1,-2.702924490E0,-1.335628748E0,3.054674614E0
5.549469167E0,-4.460158944E-2,-3.776101828E0,-2.585192680E0,4.576478505E0
5.559425167E0,-4.956414700E-1,-2.839888096E0,-2.616274118E0,3.893008493E0
5.569382167E0,-1.034706235E0,-1.542438030E0,-1.345588326E0,2.293543114E0
5.579339167E0,-1.569518685E0,-8.313176036E-1,-1.016642619E-2,1.776114078E0
5.589295167E0,-1.859568119E0,-3.059425652E-1,7.742241025E-1,2.037404575E0
5.599252167E0,-2.094662666E0,8.316578269E-1,1.158614397E0,2.534098212E0
5.609208167E0,-2.102866411E0,1.380066633E0,1.419279218E0,2.888076272E0
5.619165167E0,-1.658870220E0,1.246069908E0,1.433543444E0,2.521822244E0
5.629122167E0,-7.579836249E-1,1.084520221E0,9.080602527E-1,1.604773102E0
5.639078167E0,4.669937789E-1,7.280913591E-1,7.260482758E-2,8.680274637E-1
5.649035167E0,1.684528828E0,5.012925863E-1,-7.098237872E-1,1.895463383E0
5.658990792E0,2.530748367E0,3.984543681E-1,-1.214201689E0,2.835090638E0
5.668947792E0,3.017667770E0,2.558626831E-1,-1.367361188E0,3.322869408E0
5.678904792E0,3.263625145E0,2.366061807E-1,-1.235794425E0,3.497773496E0
5.688860792E0,3.279681206E0,4.016682804E-1,-9.333905578E-1,3.433491540E0
5.698817792E0,3.163721561E0,6.095530391E-1,-5.315773487E-1,3.265465281E0
5.708773792E0,2.993201971E0,9.458950758E-1,-1.654812396E-1,3.143462991E0
5.718730792E0,2.746708870E0,1.577113390E0,1.609647870E-1,3.171372877E0
5.728687792E0,2.654864788E0,2.102953911E0,4.090843499E-1,3.411461886E0
5.738643792E0,2.907150984E0,2.504730463E0,5.472696424E-1,3.876171513E0
5.748600792E0,3.517610788E0,2.893347025E0,6.360245347E-1,4.598866151E0
5.758556792E0,4.376754761E0,3.302839994E0,8.607209921E-1,5.550277010E0
5.768513792E0,5.159178734E0,3.593543291E0,1.310372591E0,6.422441508E0
5.778470792E0,5.681946754E0,3.612816811E0,1.857698202E0,6.984841218E0
5.788426792E0,6.134991646E0,2.929241896E0,2.589355946E0,7.274843283E0
5.798383792E0,6.760887623E0,1.774173617E0,3.249317408E0,7.708135773E0
5.808339792E0,7.622791767E0,2.668842971E-1,3.764928102E0,8.506048740E0
5.818296792E0,8.826822281E0,-1.673355341E0,3.969011068E0,9.821708534E0
5.828253792E0,1.039483929E1,-4.088895798E0,3.806685686E0,1.180095795E1
5.838209792E0,1.207152081E1,-6.122025013E0,3.782270670E0,1.405369618E1
5.848166792E0,1.345762920E1,-7.286160946E0,4.300796509E0,1.589631327E1
5.858122792E0,1.431456089E1,-7.602331638E0,5.204480171E0,1.702318166E1
5.868079792E0,1.496037769E1,-7.344350338E0,6.213146687E0,1.778638733E1
5.878036792E0,1.565772438E1,-6.915045261E0,6.956592560E0,1.847637312E1
5.887992792E0,1.630010223E1,-6.583285809E0,7.320807457E0,1.904277308E1
5.897949792E0,1.669273758E1,-6.250176430E0,7.301838398E0,1.926211404E1
5.907905792E0,1.663629723E1,-5.998811245E0,7.117294788E0,1.906326328E1
5.917862792E0,1.614311218E1,-5.909868240E0,7.030301571E0,1.857287683E1
5.927819792E0,1.533551407E1,-5.787429333E0,6.892614841E0,1.778146421E1
5.937775792E0,1.441359520E1,-5.660049438E0,6.591742992E0,1.682970475E1
5.947732792E0,1.354287720E1,-5.651058197E0,6.179151535E0,1.592249651E1
5.957688792E0,1.267145634E1,-5.375412464E0,5.639516354E0,1.487497931E1
5.967645792E0,1.160419655E1,-4.623212814E0,4.830243587E0,1.339263706E1
5.977602792E0,1.004714966E1,-3.553111315E0,3.856198072E0,1.133314078E1
5.987558792E0,7.982861519E0,-2.320370197E0,2.876279593E0,8.796771009E0
5.997515792E0,5.947366238E0,-1.336257339E0,1.804668307E0,6.357167336E0
6.007471792E0,4.294168472E0,-7.515158057E-1,9.295885563E-1,4.457442513E0
6.017428792E0,3.221135616E0,-4.835828841E-1,3.536397815E-1,3.276374240E0
6.027385792E0,2.754867554E0,-7.486358881E-1,2.641752958E-1,2.866973931E0
6.037341792E0,2.679733515E0,-1.257083416E0,4.899743199E-1,3.000217535E0
6.047298792E0,2.928637743E0,-1.610868096E0,8.756906986E-1,3.455235050E0
6.057254792E0,3.456272602E0,-2.115285397E0,1.408094049E0,4.289869632E0
6.067211792E0,4.134253979E0,-2.639414310E0,2.038004160E0,5.311499300E0
6.077168792E0,4.677791119E0,-2.851836205E0,2.642665148E0,6.082629248E0
6.087124792E0,4.904442787E0,-2.940532446E0,3.126039028E0,6.517086015E0
6.097081792E0,4.738327503E0,-2.828172922E0,3.575664520E0,6.575384884E0
6.107037792E0,4.134746075E0,-2.528670073E0,4.147463322E0,6.379008500E0
6.116994792E0,3.172556877E0,-2.392295837E0,4.651669979E0,6.117698105E0
6.126951792E0,2.173961878E0,-2.510519981E0,4.984276295E0,5.989309727E0
6.136907792E0,1.408176541E0,-2.582400322E0,5.164439678E0,5.943331539E0
6.146864792E0,9.157276750E-1,-2.621063471E0,5.256959438E0,5.945094905E0
6.156820792E0,6.594231725E-1,-2.749271631E0,5.333923817E0,6.036892968E0
6.166777792E0,5.375618339E-1,-3.054646254E0,5.467233658E0,6.285736260E0
6.176734792E0,5.883312821E-1,-3.537793159E0,5.580527782E0,6.633581572E0
6.186690792E0,7.878404260E-1,-3.981873751E0,5.484900475E0,6.823499419E0
6.196647792E0,1.065713882E0,-4.087551117E0,5.252633572E0,6.740473251E0
6.206603792E0,1.353133202E0,-4.034348488E0,4.960538387E0,6.535585534E0
6.216560792E0,1.586700678E0,-3.954673529E0,4.680604458E0,6.329701403E0
6.226517792E0,1.574034810E0,-3.720833540E0,4.423279762E0,5.990625315E0
6.236473792E0,1.255344987E0,-3.343731880E0,4.116023540E0,5.449594821E0
6.246430792E0,8.223816156E-1,-2.875015974E0,3.803481579E0,4.838233200E0
6.256387792E0,3.888552189E-1,-2.370933533E0,3.574707270E0,4.307094875E0
6.266343792E0,-2.161293849E-2,-1.915788054E0,3.363983631E0,3.871317200E0
6.276300792E0,-3.144509494E-1,-1.520416260E0,3.131773233E0,3.495504054E0
6.286256792E0,-5.716897249E-1,-1.315826416E0,3.019012451E0,3.342553587E0
6.296213792E0,-7.263333797E-1,-1.244581580E0,2.863225698E0,3.205402453E0
6.306170792E0,-7.275321484E-1,-1.003566027E0,2.611210823E0,2.890479157E0
6.316126792E0,-6.636309624E-1,-7.242134213E-1,2.383538723E0,2.578012408E0
6.326083792E0,-5.180761218E-1,-6.500697136E-1,2.151094198E0,2.306122232E0
6.336039792E0,-3.195817173E-1,-5.713277459E-1,1.923954606E0,2.032276850E0
6.345996792E0,-1.018750444E-1,-4.702076018E-1,1.753074288E0,1.817895259E0
6.355953792E0,1.439131498E-1,-3.750624359E-1,1.647062421E0,1.695345818E0
6.365909792E0,4.408675730E-1,-5.005052090E-1,1.688092351E0,1.815082771E0
6.375866792E0,6.540288329E-1,-8.436756134E-1,1.786245108E0,2.080916586E0
6.385822792E0,7.516967654E-1,-1.428151488E0,1.851065993E0,2.455831837E0
6.395779792E0,7.999777198E-1,-1.987466455E0,1.863448620E0,2.839441498E0
6.405736792E0,8.276663423E-1,-2.357940197E0,1.905172706E0,3.142387084E0
6.415692792E0,7.951847911E-1,-2.575555086E0,1.956529617E0,3.330737305E0
6.425649792E0,6.787467599E-1,-2.557203293E0,1.925194740E0,3.272057553E0
6.435605792E0,4.827210605E-1,-2.297523737E0,1.841676712E0,2.983857915E0
6.445562792E0,2.543244958E-1,-2.006866455E0,1.745237350E0,2.671712433E0
6.455519792E0,6.100191548E-2,-1.734806538E0,1.724552274E0,2.446907334E0
6.465475792E0,-9.510120749E-2,-1.557295799E0,1.832366824E0,2.406612271E0
6.475432792E0,-2.187176943E-1,-1.423442602E0,1.975854516E0,2.445000479E0
6.485388792E0,-3.230641782E-1,-1.318258166E0,2.060871601E0,2.467664242E0
6.495345792E0,-4.287647605E-1,-1.209089875E0,2.081278563E0,2.444884047E0
6.505302792E0,-5.328295231E-1,-1.194641113E0,2.059053659E0,2.439421379E0
6.515258792E0,-5.880233049E-1,-1.374871612E0,1.994513869E0,2.492815463E0
6.525215792E0,-5.767890811E-1,-1.525770426E0,1.978718162E0,2.564368655E0
6.535171792E0,-4.991390109E-1,-1.616209507E0,2.043371677E0,2.652666721E0
6.545128792E0,-3.381703496E-1,-1.876878381E0,2.134107590E0,2.862070378E0
6.555085792E0,-1.210231408E-1,-2.225073576E0,2.240332842E0,3.159856051E0
6.565041792E0,1.001452506E-1,-2.451531649E0,2.333295822E0,3.385898092E0
6.574998792E0,2.355025411E-1,-2.508177042E0,2.367598057E0,3.457156936E0
6.584954792E0,3.077008426E-1,-2.376686096E0,2.311022520E0,3.329285463E0
6.594911792E0,3.022323251E-1,-2.183042526E0,2.236416101E0,3.139836943E0
6.604868792E0,2.005661130E-1,-1.963836312E0,2.251411915E0,2.994283794E0
6.614824792E0,2.871580049E-2,-1.665489793E0,2.350440264E0,2.880841940E0
6.624781792E0,-1.985890716E-1,-1.207680583E0,2.449428320E0,2.738179889E0
6.634737792E0,-4.843731821E-1,-7.331585288E-1,2.498884439E0,2.648879433E0
6.644694792E0,-7.837716341E-1,-4.000774026E-1,2.479248047E0,2.630785202E0
6.654651792E0,-1.063639760E0,-9.364822507E-2,2.393978119E0,2.621303257E0
6.664608417E0,-1.336810231E0,1.873458922E-1,2.279547453E0,2.649244547E0
6.674565417E0,-1.563857198E0,3.224741518E-1,2.154028654E0,2.681320264E0
6.684521417E0,-1.740041256E0,3.062956631E-1,2.087195873E0,2.734583555E0
6.694478417E0,-1.869022489E0,1.937779188E-1,2.082345247E0,2.804809561E0
6.704435417E0,-1.926144600E0,-3.835573792E-2,2.144960403E0,2.883116251E0
6.714391417E0,-1.959353447E0,-2.099365443E-1,2.186875343E0,2.943732843E0
6.724348417E0,-1.973409891E0,-3.281008899E-1,2.103083849E0,2.902577900E0
6.734304417E0,-1.922015190E0,-2.194228768E-1,1.956863523E0,2.751654709E0
6.744261417E0,-1.893735886E0,-1.078371424E-3,1.938161016E0,2.709742587E0
6.754218417E0,-1.909559608E0,1.972219348E-1,1.977403522E0,2.755982415E0
6.764174417E0,-1.953108549E0,3.521612585E-1,2.045672178E0,2.850162314E0
6.774131417E0,-2.010877132E0,4.665192366E-1,2.121617317E0,2.960156597E0
6.784087417E0,-2.126460314E0,4.410484731E-1,2.177314520E0,3.075232632E0
6.794044417E0,-2.295639038E0,2.750847936E-1,2.141787291E0,3.151647670E0
6.804001417E0,-2.499255419E0,1.087396368E-1,2.028885841E0,3.220943917E0
6.813957417E0,-2.709047794E0,5.955531076E-2,1.891892195E0,3.304806025E0
6.823914417E0,-2.898068428E0,6.612246484E-2,1.766825318E0,3.394826137E0
6.833871417E0,-3.045128107E0,4.297746718E-2,1.682339430E0,3.479212297E0
6.843827417E0,-3.143331528E0,9.186838567E-2,1.640527844E0,3.546872496E0
6.853784417E0,-3.302996159E0,2.442014664E-1,1.697646260E0,3.721749697E0
6.863740417E0,-3.558924198E0,2.375710160E-1,1.749606967E0,3.972846080E0
6.873697417E0,-3.788446903E0,-6.424076110E-2,1.607134819E0,4.115742842E0
6.883654417E0,-3.872592926E0,-1.829552054E-1,1.339551687E0,4.101810247E0
6.893610417E0,-3.858338594E0,-1.449162066E-1,1.204833031E0,4.044675518E0
6.903567417E0,-3.827694654E0,3.169417754E-2,1.177746177E0,4.004914100E0
6.913523417E0,-3.823793888E0,3.488119245E-1,1.264236808E0,4.042445320E0
6.923480417E0,-3.930266380E0,9.683480859E-1,1.228356719E0,4.230077076E0
6.933437417E0,-4.209553719E0,1.786831260E0,9.767950177E-1,4.676241757E0
6.943393417E0,-4.673903465E0,2.540218592E0,6.108475924E-1,5.354551230E0
6.953350417E0,-5.279510498E0,3.129533768E0,2.914554775E-1,6.144278558E0
6.963306417E0,-5.882301331E0,3.802361250E0,-2.580382675E-2,7.004290532E0
6.973263417E0,-6.324275017E0,4.602378368E0,-3.153165877E-1,7.828011605E0
6.983219417E0,-6.457281113E0,5.403136253E0,-6.329210401E-1,8.443396815E0
6.993176417E0,-6.205287457E0,5.846005917E0,-9.489392042E-1,8.577987130E0
7.003133417E0,-5.614658833E0,5.828380585E0,-1.169665694E0,8.176951258E0
7.013089417E0,-4.893053055E0,5.478058815E0,-1.319135904E0,7.462654763E0
7.023046417E0,-4.396603107E0,5.143341541E0,-1.423350215E0,6.914478066E0
7.033003417E0,-4.318918705E0,5.139040470E0,-1.544506907E0,6.888272448E0
7.042959417E0,-4.411463261E0,4.951388836E0,-1.712387085E0,6.849053149E0
7.052916417E0,-4.414839745E0,4.402323723E0,-1.824287772E0,6.496098060E0
7.062872417E0,-4.370566845E0,4.140380383E0,-1.978659868E0,6.337168069E0
7.072829417E0,-4.549989223E0,4.513697624E0,-2.105246782E0,6.745956729E0
7.082786417E0,-5.037774563E0,5.432039261E0,-2.059307814E0,7.689406463E0
7.092742417E0,-5.546571732E0,6.538929462E0,-1.876999974E0,8.777538686E0
7.102699417E0,-6.031983852E0,7.860713482E0,-1.546317935E0,1.002829720E1
7.112655417E0,-6.318895340E0,8.865778923E0,-9.406387210E-1,1.092772966E1
7.122612417E0,-6.440795898E0,8.464296341E0,-2.089926153E-1,1.063822552E1
7.132569417E0,-6.649187565E0,7.144144535E0,4.087091982E-1,9.768190192E0
7.142525417E0,-6.640663624E0,5.996867657E0,9.726071954E-1,9.000377759E0
7.152482417E0,-6.284419060E0,5.484774113E0,1.343810320E0,8.448816258E0
7.162438417E0,-5.889722824E0,5.704348564E0,1.509364724E0,8.337062394E0
7.172395417E0,-5.562150478E0,6.189231873E0,1.509601474E0,8.457127510E0
7.182352417E0,-5.192821980E0,6.413540840E0,1.348935604E0,8.361730292E0
7.192308417E0,-4.749064922E0,6.588450432E0,1.055052519E0,8.189898201E0
7.202265417E0,-4.090252399E0,6.649025917E0,7.671785951E-1,7.843996005E0
7.212221417E0,-3.229261398E0,6.070339680E0,5.538588762E-1,6.898109354E0
7.222178417E0,-2.598159313E0,5.028945446E0,2.682901621E-1,5.666807190E0
7.232135417E0,-2.080235481E0,3.975389004E0,-3.590062261E-2,4.486912774E0
7.242091417E0,-1.609719396E0,3.149903059E0,-3.194324076E-1,3.551777425E0
7.252048417E0,-1.311225653E0,2.694819927E0,-5.807681084E-1,3.052647826E0
7.262004417E0,-1.143752337E0,2.526626348E0,-8.296748400E-1,2.894886950E0
7.271961417E0,-1.015702486E0,2.401555777E0,-1.040477991E0,2.807439427E0
7.281918417E0,-1.064708710E0,2.319218874E0,-1.188437343E0,2.815095760E0
7.291874417E0,-1.397791386E0,2.471158504E0,-1.274400949E0,3.111999822E0
7.301831417E0,-1.947121978E0,2.667440653E0,-1.200023651E0,3.513770111E0
7.311787417E0,-2.634410858E0,2.639412880E0,-1.051800370E0,3.874649009E0
7.321744417E0,-3.223560333E0,2.551299334E0,-9.727739096E-1,4.224542412E0
7.331701417E0,-3.546834707E0,2.643767357E0,-9.463604093E-1,4.523841321E0
7.341657417E0,-3.660158157E0,2.815290928E0,-9.280645251E-1,4.709981370E0
7.351614417E0,-3.562619209E0,2.916946173E0,-8.696119189E-1,4.685835624E0
7.361570417E0,-3.311517715E0,2.907069683E0,-7.557588816E-1,4.470836075E0
7.371527417E0,-3.041375160E0,2.875858068E0,-6.501480341E-1,4.235943220E0
7.381484417E0,-2.839748383E0,2.795964479E0,-5.525158048E-1,4.023289942E0
7.391440417E0,-2.700682878E0,2.660021544E0,-4.972171187E-1,3.823169822E0
7.401397417E0,-2.608364344E0,2.566253901E0,-4.868842959E-1,3.691379139E0
7.411353417E0,-2.613058329E0,2.492697477E0,-5.471639037E-1,3.652533762E0
7.421310417E0,-2.705513477E0,2.430724621E0,-6.750590801E-1,3.699179655E0
7.431267417E0,-2.852191925E0,2.598983526E0,-7.840833068E-1,3.937575495E0
7.441223417E0,-3.085874796E0,2.847808361E0,-7.731872797E-1,4.269713607E0
7.451180417E0,-3.269670486E0,2.927479744E0,-6.599454284E-1,4.438063847E0
7.461136417E0,-3.320340157E0,2.844045877E0,-4.945130646E-1,4.399749866E0
7.471093417E0,-3.333549738E0,2.779011011E0,-3.268969059E-1,4.352277294E0
7.481050417E0,-3.389102697E0,2.680401564E0,-1.536142826E-1,4.323675171E0
7.491006417E0,-3.453542471E0,2.481617689E0,8.336283267E-3,4.252699313E0
7.500963417E0,-3.467732906E0,2.393461704E0,1.247025132E-1,4.215374379E0
7.510919417E0,-3.523489952E0,2.517411709E0,2.010476142E-1,4.335062087E0
7.520876417E0,-3.726959467E0,2.717325687E0,2.837992609E-1,4.621106770E0
7.530833417E0,-4.032766819E0,2.771223307E0,4.062356949E-1,4.909981087E0
7.540789417E0,-4.325932980E0,2.653712988E0,5.363228321E-1,5.103286289E0
7.550746417E0,-4.483286858E0,2.401472092E0,6.783782840E-1,5.130996624E0
7.560702417E0,-4.584122658E0,2.059343576E0,8.260529041E-1,5.092881297E0
7.570659417E0,-4.695611000E0,1.809630156E0,9.732996225E-1,5.125508377E0
7.580616417E0,-4.840872288E0,1.800171733E0,1.106510758E0,5.281953127E0
7.590572417E0,-5.018562794E0,1.922861457E0,1.178557038E0,5.502032842E0
7.600529417E0,-5.271104813E0,2.030822515E0,1.158253193E0,5.766310475E0
7.610485417E0,-5.550042152E0,2.050718307E0,1.057804823E0,6.010604338E0
7.620442417E0,-5.737828255E0,1.932861805E0,8.826530576E-1,6.118635817E0
7.630399417E0,-5.854931831E0,1.750542402E0,6.532185674E-1,6.145837612E0
7.640355417E0,-6.000051022E0,1.494863391E0,4.212395847E-1,6.197795705E0
7.650312417E0,-6.155506134E0,1.307299614E0,2.069334090E-1,6.296198018E0
7.660268417E0,-6.295781136E0,1.309374690E0,1.473435387E-2,6.430516254E0
7.670225417E0,-6.474195957E0,1.342647195E0,-1.682711542E-1,6.614093284E0
7.680182417E0,-6.544145107E0,1.413823247E0,-2.879582942E-1,6.701317135E0
7.690138417E0,-6.555330753E0,1.459411025E0,-3.381788433E-1,6.724329465E0
7.700095417E0,-6.547738075E0,1.240610838E0,-3.650485873E-1,6.674222773E0
7.710051417E0,-6.476792812E0,1.002682447E0,-3.873216808E-1,6.565381581E0
7.720008417E0,-6.400625706E0,8.056611419E-1,-4.386025965E-1,6.466024400E0
7.729965417E0,-6.354719162E0,6.547096968E-1,-5.113335252E-1,6.408787903E0
7.739921417E0,-6.339385986E0,6.009721756E-1,-6.185021996E-1,6.397775177E0
7.749878417E0,-6.304307461E0,5.735472441E-1,-7.461033463E-1,6.374160274E0
7.759834417E0,-6.197580338E0,5.468077064E-1,-9.211973548E-1,6.289483705E0
7.769791417E0,-6.073099613E0,5.254699588E-1,-1.074182868E0,6.189711336E0
7.779748417E0,-5.965906620E0,4.233645797E-1,-1.214269996E0,6.102928067E0
7.789704417E0,-5.776470661E0,2.105500549E-1,-1.339122415E0,5.933396453E0
7.799661417E0,-5.475765705E0,-9.161996096E-2,-1.422213912E0,5.658188463E0
7.809617417E0,-5.160705090E0,-3.601065576E-1,-1.458337903E0,5.374877040E0
7.819574417E0,-4.960090160E0,-5.032868385E-1,-1.481255054E0,5.200952661E0
7.829531417E0,-4.921979427E0,-5.104914904E-1,-1.568280458E0,5.190952383E0
7.839487417E0,-4.978907108E0,-4.161508977E-1,-1.754630804E0,5.295415642E0
7.849444417E0,-5.058207035E0,-2.534679770E-1,-1.976899505E0,5.436711881E0
7.859401417E0,-5.116912365E0,-1.254353672E-1,-2.151127815E0,5.552105642E0
7.869357417E0,-5.119102478E0,-9.607240558E-2,-2.264859200E0,5.598573683E0
7.879314417E0,-5.050103188E0,-1.487757862E-1,-2.303416491E0,5.552603351E0
7.889270417E0,-4.920209885E0,-1.855828017E-1,-2.308647633E0,5.438084238E0
7.899227417E0,-4.725029945E0,-3.544466570E-2,-2.420550346E0,5.309070379E0
7.909184417E0,-4.458663464E0,1.987161785E-1,-2.614863634E0,5.172685939E0
7.919140417E0,-4.151723862E0,3.718310595E-1,-2.798851252E0,5.020820420E0
7.929097417E0,-3.788497210E0,4.029532969E-1,-2.959143162E0,4.824065787E0
7.939053417E0,-3.352695942E0,4.410972595E-1,-3.147175550E0,4.619507638E0
7.949010417E0,-2.935744524E0,4.947756827E-1,-3.343164682E0,4.476622497E0
7.958966417E0,-2.658122778E0,5.136983991E-1,-3.529071569E0,4.447903876E0
7.968923417E0,-2.493527174E0,5.403033495E-1,-3.671014547E0,4.470565209E0
7.978880417E0,-2.453543425E0,6.292857528E-1,-3.704432011E0,4.487615449E0
7.988836417E0,-2.476040840E0,7.683157921E-1,-3.637906551E0,4.467152502E0
7.998793417E0,-2.434376001E0,9.006548524E-1,-3.527871370E0,4.379867816E0
8.008750417E0,-2.367733240E0,8.688324690E-1,-3.368730783E0,4.208251139E0
8.018706417E0,-2.298912048E0,6.280859709E-1,-3.137785912E0,3.940201647E0
8.028663417E0,-2.289344311E0,2.555935979E-1,-2.851741314E0,3.665904252E0
8.038619417E0,-2.392760992E0,6.340697873E-3,-2.594497442E0,3.529413882E0
8.048576417E0,-2.630110264E0,1.856620610E-2,-2.403288126E0,3.562810481E0
8.058533417E0,-2.882771969E0,3.222057819E-1,-2.265639305E0,3.680667365E0
8.068489417E0,-3.015176773E0,7.463282943E-1,-2.150894880E0,3.778180208E0
8.078446417E0,-2.944749355E0,1.007907867E0,-2.051428318E0,3.727705082E0
8.088402417E0,-2.716733456E0,1.000548363E0,-1.989863873E0,3.513018065E0
8.098359417E0,-2.409186125E0,9.905776978E-1,-1.979000330E0,3.271370396E0
8.108316417E0,-2.122004747E0,9.775140882E-1,-2.063878536E0,3.117375908E0
8.118272417E0,-1.887975097E0,1.057077289E0,-2.211796045E0,3.094172604E0
8.128229417E0,-1.780320764E0,1.270962477E0,-2.342094183E0,3.204729755E0
8.138185417E0,-1.744110584E0,1.462829471E0,-2.460301161E0,3.351846296E0
8.148142417E0,-1.671270490E0,1.499059916E0,-2.539127827E0,3.389320846E0
8.158099417E0,-1.603018999E0,1.341652513E0,-2.606500149E0,3.341189070E0
8.168055417E0,-1.588310122E0,1.080792904E0,-2.686779022E0,3.302971974E0
8.178012417E0,-1.687177062E0,8.469259739E-1,-2.774190664E0,3.355589946E0
8.187968417E0,-1.868771076E0,7.414485216E-1,-2.932282925E0,3.555324795E0
8.197925417E0,-2.097326994E0,6.884537339E-1,-3.102676868E0,3.807801572E0
8.207882417E0,-2.350472450E0,6.856201291E-1,-3.185689449E0,4.017886630E0
8.217838417E0,-2.536287308E0,7.364671230E-1,-3.156041622E0,4.115305074E0
8.227795417E0,-2.535571814E0,8.109831810E-1,-3.070083618E0,4.063524525E0
8.237751417E0,-2.423220634E0,8.334330916E-1,-3.042011023E0,3.977491675E0
8.247708417E0,-2.382561922E0,7.087010145E-1,-3.162478685E0,4.022453216E0
8.257665417E0,-2.387290239E0,6.067607999E-1,-3.379057884E0,4.181548223E0
8.267621417E0,-2.440860987E0,7.934731841E-1,-3.624353409E0,4.441096676E0
8.277578417E0,-2.535866022E0,1.112527847E0,-3.878111362E0,4.765299826E0
8.287534417E0,-2.577452183E0,1.426638603E0,-4.148073673E0,5.087737479E0
8.297491417E0,-2.491904497E0,1.599418283E0,-4.385090828E0,5.291195369E0
8.307448417E0,-2.249845743E0,1.542595267E0,-4.476565838E0,5.242236901E0
8.317404417E0,-1.921919107E0,1.398642182E0,-4.419245720E0,5.017938396E0
8.327361417E0,-1.597272754E0,1.203262925E0,-4.341498375E0,4.779929922E0
8.337317417E0,-1.371402383E0,1.002487063E0,-4.388839245E0,4.706127360E0
8.347274417E0,-1.304570913E0,8.997206688E-1,-4.547555923E0,4.815772776E0
8.357231417E0,-1.319243789E0,8.308057785E-1,-4.693607330E0,4.945765076E0
8.367187417E0,-1.294394255E0,7.855448127E-1,-4.756620884E0,4.991791199E0
8.377144417E0,-1.218077421E0,6.985476017E-1,-4.745561600E0,4.948942943E0
8.387100417E0,-1.100412011E0,4.374105632E-1,-4.659731865E0,4.807841059E0
8.397057417E0,-9.304493666E-1,-9.552793344E-4,-4.482333183E0,4.577886816E0
8.407014417E0,-7.275985479E-1,-4.787391722E-1,-4.301772594E0,4.389058931E0
8.416970417E0,-4.576415122E-1,-9.664462805E-1,-4.238352776E0,4.371165567E0
8.426927417E0,-1.291291416E-1,-1.574826956E0,-4.139284134E0,4.430623818E0
8.436883417E0,1.208718345E-1,-2.137821198E0,-3.899821758E0,4.448988561E0
8.446840417E0,1.664797962E-1,-2.417264223E0,-3.500158310E0,4.256993075E0
8.456797417E0,-8.824867010E-2,-2.229580164E0,-3.068686008E0,3.794159901E0
8.466753417E0,-6.143995523E-1,-1.564162374E0,-2.775543690E0,3.244646901E0
8.476710417E0,-1.209892988E0,-7.433136106E-1,-2.598885298E0,2.961513288E0
8.486666417E0,-1.733498216E0,1.501083933E-2,-2.447459459E0,2.999216430E0
8.496623417E0,-2.114361048E0,7.795860171E-1,-2.305333614E0,3.223792808E0
8.506580417E0,-2.299082518E0,1.423281670E0,-2.131769419E0,3.443247303E0
8.516536417E0,-2.322288752E0,1.979054928E0,-1.916828394E0,3.603319934E0
8.526493417E0,-2.227200747E0,2.366786957E0,-1.695759296E0,3.665747298E0
8.536449417E0,-2.023304701E0,2.615814447E0,-1.531846285E0,3.644557610E0
8.546406417E0,-1.758334517E0,2.735605001E0,-1.473190188E0,3.570093042E0
8.556363417E0,-1.485343099E0,2.669138193E0,-1.526345253E0,3.414714138E0
8.566319417E0,-1.258858800E0,2.509085178E0,-1.704632998E0,3.284205774E0
8.576276417E0,-1.094883084E0,2.341814995E0,-1.957939148E0,3.242898726E0
8.586232417E0,-9.621464014E-1,2.210832119E0,-2.190544128E0,3.257604631E0
8.596189417E0,-7.783125639E-1,2.119307518E0,-2.285805941E0,3.212809300E0
8.606146417E0,-5.625520349E-1,2.162724972E0,-2.191429377E0,3.129889265E0
8.616102417E0,-4.416641593E-1,2.394871473E0,-1.997181416E0,3.149477768E0
8.626059417E0,-4.171300530E-1,2.653377295E0,-1.777879000E0,3.221065396E0
8.636015417E0,-4.161350131E-1,2.919639587E0,-1.535311460E0,3.324852621E0
8.645972417E0,-4.141916931E-1,3.127660990E0,-1.282724977E0,3.405760031E0
8.655929417E0,-4.453045428E-1,3.161350250E0,-1.080673933E0,3.370502587E0
8.665885292E0,-4.634542465E-1,3.067652225E0,-1.020113111E0,3.265870600E0
8.675842292E0,-4.393540621E-1,2.907828331E0,-1.050274491E0,3.122751047E0
8.685798292E0,-3.764629662E-1,2.740944624E0,-1.088937283E0,2.973261879E0
8.695755292E0,-3.138105273E-1,2.664347172E0,-1.094528198E0,2.897449719E0
8.705712292E0,-2.671985626E-1,2.693762779E0,-1.057242870E0,2.906116906E0
8.715668292E0,-2.374598384E-1,2.801750660E0,-9.389110208E-1,2.964413574E0
8.725625292E0,-2.371820807E-1,2.959045172E0,-7.449857593E-1,3.060589396E0
8.735581292E0,-3.064674437E-1,3.193040848E0,-5.491105318E-1,3.254374675E0
8.745538292E0,-4.192986488E-1,3.385454655E0,-3.807771802E-1,3.432507223E0
8.755495292E0,-5.115719438E-1,3.545073271E0,-2.617659569E-1,3.591346790E0
8.765451292E0,-4.835968018E-1,3.728474617E0,-2.093546987E-1,3.765530272E0
8.775408292E0,-2.971028388E-1,3.944807291E0,-2.141497135E-1,3.961771669E0
8.785364292E0,-4.625223950E-2,4.025399208E0,-2.141329348E-1,4.031355971E0
8.795321292E0,2.252632976E-1,3.881318092E0,-1.813146621E-1,3.892075114E0
8.805278292E0,5.144868493E-1,3.637062550E0,-2.045797706E-1,3.678963657E0
8.815234292E0,7.574512362E-1,3.389680386E0,-2.664826214E-1,3.483486541E0
8.825191292E0,9.193373322E-1,3.220341921E0,-2.473720461E-1,3.358120925E0
8.835147292E0,1.004924297E0,3.194930792E0,-1.158939824E-1,3.351251561E0
8.845104292E0,1.043239236E0,3.265683651E0,6.804256141E-2,3.428945552E0
8.855061292E0,1.020295858E0,3.418055296E0,2.039380670E-1,3.572911471E0
8.865017292E0,8.925347328E-1,3.638726234E0,2.789119184E-1,3.756958706E0
8.874974292E0,5.659563541E-1,3.850336075E0,3.066485524E-1,3.903770974E0
8.884930292E0,9.833990782E-2,3.965707541E0,3.985521197E-1,3.986897394E0
8.894887292E0,-3.318298459E-1,4.006853580E0,5.958467722E-1,4.064482752E0
8.904844292E0,-6.312567592E-1,3.942539692E0,8.733971715E-1,4.087166126E0
8.914800292E0,-8.240064383E-1,3.726015329E0,1.172645807E0,3.992151680E0
8.924757292E0,-9.067779779E-1,3.366192341E0,1.381841660E0,3.750064473E0
8.934713292E0,-7.767046690E-1,2.841981411E0,1.524381995E0,3.317208005E0
8.944670292E0,-4.669659436E-1,2.411428213E0,1.697230458E0,2.985571042E0
8.954627292E0,-8.341781795E-2,2.064177275E0,1.857233167E0,2.777967132E0
8.964583292E0,3.075704575E-1,1.737741113E0,2.004630089E0,2.670746254E0
8.974540292E0,6.035369635E-1,1.489558697E0,2.059834480E0,2.612653835E0
8.984496292E0,8.010553718E-1,1.336553335E0,2.045706511E0,2.571571437E0
8.994453292E0,1.017940402E0,1.310535192E0,2.079577208E0,2.660516212E0
9.004410292E0,1.259898186E0,1.349927664E0,2.100856304E0,2.797006497E0
9.014366292E0,1.500252962E0,1.378679633E0,2.043672800E0,2.885847362E0
9.024323292E0,1.808855534E0,1.436450243E0,1.987270117E0,3.047062546E0
9.034279292E0,2.201673508E0,1.510053992E0,1.968904614E0,3.317260116E0
9.044236292E0,2.652028322E0,1.596590996E0,1.982657433E0,3.676042373E0
9.054193292E0,3.071398735E0,1.631304622E0,2.067308903E0,4.045789300E0
9.064149292E0,3.411589146E0,1.576649427E0,2.245984793E0,4.378265822E0
9.074106292E0,3.672032118E0,1.573271036E0,2.439959526E0,4.681068694E0
9.084063292E0,3.855506659E0,1.593813896E0,2.555375099E0,4.892352831E0
9.094019292E0,3.942972898E0,1.572404742E0,2.614063978E0,4.985260518E0
9.103976292E0,3.891759634E0,1.539852619E0,2.602977753E0,4.928735367E0
9.113932292E0,3.730811596E0,1.559692264E0,2.554115057E0,4.782791951E0
9.123889292E0,3.474316120E0,1.670900822E0,2.480555534E0,4.584314324E0
9.133846292E0,3.167609692E0,1.815743089E0,2.381202698E0,4.358990756E0
9.143802292E0,2.883476734E0,1.915517092E0,2.313688040E0,4.163747849E0
9.153759292E0,2.689852953E0,1.984547973E0,2.358969212E0,4.091268178E0
9.163715292E0,2.612231016E0,1.997818470E0,2.475392103E0,4.116138431E0
9.173672292E0,2.648996830E0,1.955091715E0,2.557286978E0,4.168846904E0
9.183628292E0,2.764813662E0,1.850163102E0,2.531554699E0,4.180438647E0
9.193585292E0,2.847754240E0,1.771724939E0,2.333664417E0,4.085915208E0
9.203542292E0,2.834452629E0,1.727670908E0,1.950868845E0,3.850306186E0
9.213498292E0,2.748115301E0,1.707092881E0,1.534892321E0,3.580809720E0
9.223455292E0,2.655036926E0,1.784670591E0,1.218254447E0,3.423216922E0
9.233411292E0,2.565222502E0,1.926342368E0,1.012178659E0,3.363876787E0
9.243368292E0,2.492705822E0,2.049138308E0,8.846763372E-1,3.345923242E0
9.253325292E0,2.469912291E0,2.146228313E0,8.631463051E-1,3.384048499E0
9.263281292E0,2.463203669E0,2.221499205E0,8.863863945E-1,3.433381987E0
9.273238292E0,2.433312416E0,2.229942560E0,8.597370386E-1,3.410689214E0
9.283194292E0,2.381995916E0,2.205899715E0,7.742541432E-1,3.337569112E0
9.293151292E0,2.346624851E0,2.211547375E0,7.061228752E-1,3.300939184E0
9.303108292E0,2.312047958E0,2.155672312E0,7.133248448E-1,3.240574210E0
9.313064292E0,2.297938108E0,2.077295542E0,7.941781282E-1,3.197873546E0
9.323021292E0,2.296457052E0,2.049669504E0,8.572369814E-1,3.195264514E0
9.332977292E0,2.243918896E0,2.070884228E0,8.217907548E-1,3.162131171E0
9.342934292E0,2.110904455E0,2.118459702E0,7.224569321E-1,3.076643162E0
9.352891292E0,1.903624773E0,2.210730076E0,5.927219987E-1,2.976984063E0
9.362847292E0,1.664697409E0,2.320812941E0,4.452012479E-1,2.890604490E0
9.372804292E0,1.447654128E0,2.369434595E0,3.250164688E-1,2.795632036E0
9.382760292E0,1.319303870E0,2.372365713E0,2.936425805E-1,2.730367694E0
9.392717292E0,1.363619924E0,2.409227133E0,3.096573055E-1,2.785627814E0
9.402674292E0,1.565550923E0,2.441698790E0,2.694273293E-1,2.912976786E0
9.412630292E0,1.813798308E0,2.433864594E0,1.521969140E-1,3.039198095E0
9.422587292E0,2.023592949E0,2.398086548E0,1.101417933E-3,3.137793608E0
9.432543292E0,2.143955469E0,2.254751921E0,-1.580492109E-1,3.115354046E0
9.442500292E0,2.191862106E0,1.972288847E0,-2.985088527E-1,2.963661641E0
9.452457292E0,2.194800377E0,1.573154330E0,-3.967548907E-1,2.729354811E0
9.462413292E0,2.166783094E0,1.068143725E0,-4.784162045E-1,2.462673763E0
9.472370292E0,2.193083048E0,5.885450840E-1,-4.940795600E-1,2.323814361E0
9.482326292E0,2.342334270E0,2.612615526E-1,-4.416554868E-1,2.397883859E0
9.492283292E0,2.634141684E0,5.898788571E-2,-3.590192199E-1,2.659149635E0
9.502240292E0,3.020679951E0,-4.439823795E-3,-2.981673181E-1,3.035363376E0
9.512196292E0,3.566870928E0,-6.453776360E-2,-3.387554288E-1,3.583502278E0
9.522153292E0,4.318078518E0,-1.482824534E-1,-5.098629594E-1,4.350603408E0
9.532109292E0,5.191256523E0,-2.800628245E-1,-8.776214123E-1,5.272361787E0
9.542066292E0,6.100037098E0,-6.506698728E-1,-1.414728045E0,6.295655591E0
9.552023292E0,7.072672844E0,-1.244226933E0,-1.973727703E0,7.447576979E0
9.561979292E0,7.985482216E0,-1.861414552E0,-2.522170544E0,8.578702385E0
9.571936292E0,8.715547562E0,-2.439397812E0,-3.052315950E0,9.551338317E0
9.581892292E0,9.340723038E0,-3.176099539E0,-3.563621759E0,1.048981006E1
9.591849292E0,9.765536308E0,-3.825969696E0,-4.110981464E0,1.126516365E1
9.601806292E0,9.939450264E0,-4.226366997E0,-4.728055477E0,1.179022299E1
9.611762292E0,9.967660904E0,-4.432100773E0,-5.305517673E0,1.213038742E1
9.621719292E0,9.752438545E0,-4.411000252E0,-5.680404186E0,1.211750686E1
9.631675292E0,9.216664314E0,-4.221633911E0,-5.740768433E0,1.165012945E1
9.641632292E0,8.491108894E0,-3.936317205E0,-5.481801510E0,1.084636673E1
9.651589292E0,7.670398235E0,-3.480065584E0,-5.053401947E0,9.822562639E0
9.661545542E0,6.829334736E0,-2.888186216E0,-4.625316143E0,8.739278115E0
9.671502542E0,6.182509422E0,-2.399333477E0,-4.249244213E0,7.876312606E0
9.681458542E0,5.755304337E0,-1.891173482E0,-4.023911953E0,7.272683999E0
9.691415542E0,5.471914768E0,-1.322023034E0,-3.881644011E0,6.837891222E0
9.701372542E0,5.284921169E0,-9.036132693E-1,-3.815976858E0,6.580926081E0
9.711328542E0,5.152288914E0,-7.212442756E-1,-3.856529713E0,6.476040131E0
9.721285542E0,5.008764744E0,-7.372086048E-1,-3.911438704E0,6.397699080E0
9.731241542E0,4.883677483E0,-7.099682689E-1,-3.974467278E0,6.336462013E0
9.741198542E0,4.789645672E0,-6.189821959E-1,-4.054026604E0,6.305471935E0
9.751155542E0,4.708567142E0,-5.149529576E-1,-4.098469257E0,6.263643615E0
9.761111542E0,4.610254765E0,-3.367882669E-1,-4.104267597E0,6.181657370E0
9.771068542E0,4.436280727E0,-1.005464345E-1,-4.078186035E0,6.026798289E0
9.781024542E0,4.209332466E0,1.551340818E-1,-4.009168625E0,5.815150854E0
9.790981542E0,3.997279167E0,4.211893678E-1,-3.941598177E0,5.629550374E0
9.800938542E0,3.842475653E0,6.279646754E-1,-3.810789108E0,5.448033811E0
9.810894542E0,3.623057127E0,7.686363459E-1,-3.589886904E0,5.157967891E0
9.820851542E0,3.315509081E0,9.189701676E-1,-3.334900618E0,4.791520506E0
9.830807542E0,3.061692476E0,1.190402031E0,-3.156900883E0,4.555989574E0
9.840764542E0,2.870038033E0,1.428884864E0,-2.988750935E0,4.383088228E0
9.850721542E0,2.677028894E0,1.636271238E0,-2.637010574E0,4.098498754E0
9.860677542E0,2.416738749E0,1.885299325E0,-2.163118362E0,3.751541120E0
9.870634542E0,2.041131258E0,2.094336510E0,-1.671305418E0,3.368341436E0
9.880590542E0,1.554018736E0,2.144947290E0,-1.151139736E0,2.888060907E0
9.890547542E0,1.070497870E0,2.228759766E0,-6.863179803E-1,2.566002368E0
9.900504542E0,6.784054041E-1,2.402748108E0,-2.520845234E-1,2.509378204E0
9.910460542E0,3.703235388E-1,2.551771879E0,1.592245549E-1,2.583414737E0
9.920417542E0,1.531222314E-1,2.764654875E0,5.180636644E-1,2.816940353E0
9.930373542E0,1.324322373E-1,2.883661985E0,7.584491372E-1,2.984675835E0
9.940330542E0,2.534036338E-1,2.667638063E0,8.534888625E-1,2.812285454E0
9.950287542E0,4.672033489E-1,2.309689283E0,8.181620836E-1,2.494460413E0
9.960243542E0,6.790964603E-1,2.050765514E0,6.919721961E-1,2.268399594E0
9.970200542E0,8.421816826E-1,1.715106249E0,6.413756013E-1,2.015495496E0
9.980156542E0,9.887809753E-1,1.447085738E0,6.549504995E-1,1.871017132E0
9.990113542E0,1.128270268E0,1.497699380E0,6.936438680E-1,1.999309643E0
1.000007054E1,1.331600189E0,1.943046212E0,8.214774728E-1,2.494676910E0
1.001002654E1,1.606063128E0,2.566773891E0,9.556710720E-1,3.175070736E0
1.001998354E1,1.840221524E0,3.156954050E0,9.987291098E-1,3.788170266E0
1.002993954E1,1.985785127E0,3.639072657E0,9.352223277E-1,4.249803898E0
1.003989654E1,1.997837305E0,3.803145170E0,8.166463971E-1,4.372891311E0
1.004985354E1,1.930575252E0,3.871067286E0,6.976062059E-1,4.381659178E0
1.005980954E1,1.868662715E0,3.841392279E0,6.138905287E-1,4.315675679E0
1.006976654E1,1.867542505E0,3.737155199E0,6.205838323E-1,4.223643958E0
1.007972254E1,1.919489861E0,3.686056376E0,6.991146207E-1,4.214286913E0
1.008967954E1,1.999672174E0,3.707146645E0,8.579493761E-1,4.298569783E0
1.009963654E1,2.071532965E0,3.668277740E0,1.070843577E0,4.346747793E0
1.010959254E1,2.132411003E0,3.582369804E0,1.210573077E0,4.341202285E0
1.011954954E1,2.064833879E0,3.553276539E0,1.197120905E0,4.280468616E0
1.012950554E1,1.821987510E0,3.632455111E0,1.080095172E0,4.204875051E0
1.013946254E1,1.571552277E0,3.775537968E0,9.799224734E-1,4.205319436E0
1.014941954E1,1.336261988E0,4.047806740E0,8.916583657E-1,4.354927111E0
1.015937554E1,1.093048215E0,4.348876953E0,8.704598546E-1,4.567842545E0
1.016933254E1,8.298307657E-1,4.604247570E0,9.813320637E-1,4.780243446E0
1.017928854E1,5.867597461E-1,4.805807114E0,1.130306959E0,4.971686116E0
1.018924554E1,3.881220222E-1,4.939223766E0,1.255692244E0,5.111099014E0
1.019920254E1,1.934915781E-1,5.011077404E0,1.348621130E0,5.192987068E0
1.020915854E1,-1.110256836E-2,5.035191059E0,1.389692664E0,5.223458430E0
1.021911554E1,-1.692314744E-1,5.100594997E0,1.386816502E0,5.288475076E0
1.022907154E1,-3.302938640E-1,5.247409344E0,1.368310928E0,5.432924963E0
1.023902854E1,-6.321160793E-1,5.543753624E0,1.394893765E0,5.751391449E0
1.024898554E1,-1.166460633E0,5.979382515E0,1.498646379E0,6.273721913E0
1.025894154E1,-1.908118010E0,6.583463669E0,1.656013846E0,7.051616132E0
1.026889854E1,-2.801027536E0,7.374072552E0,1.832110405E0,8.098106556E0
1.027885454E1,-3.712118387E0,8.294449806E0,1.995274544E0,9.303700394E0
1.028881154E1,-4.590334892E0,9.257655144E0,2.087130070E0,1.054189096E1
1.029876854E1,-5.376451969E0,1.007471657E1,2.132840633E0,1.161702022E1
1.030872454E1,-5.965435982E0,1.065400600E1,2.152576685E0,1.239870383E1
1.031868154E1,-6.345163345E0,1.099702930E1,2.117790461E0,1.287170493E1
1.032863754E1,-6.477152824E0,1.112904167E1,2.075407505E0,1.304286754E1
1.033859454E1,-6.411685944E0,1.108300304E1,2.059610844E0,1.296860324E1
1.034855154E1,-6.208561420E0,1.088474178E1,2.154864788E0,1.271484490E1
1.035850754E1,-5.928344250E0,1.050867271E1,2.371335745E0,1.229636942E1
1.036846454E1,-5.623819351E0,9.927726746E0,2.713149786E0,1.172809806E1
1.037842054E1,-5.337579250E0,9.206011772E0,3.118186474E0,1.108889047E1
1.038837754E1,-5.024570942E0,8.415981293E0,3.503813505E0,1.040921531E1
1.039833454E1,-4.566774845E0,7.562859535E0,3.794080019E0,9.614952939E0
1.040829054E1,-3.904700994E0,6.769736767E0,3.968664885E0,8.765062847E0
1.041824754E1,-3.076884508E0,5.931316853E0,4.045255661E0,7.811007057E0
1.042820354E1,-2.212608814E0,5.072587490E0,4.074631691E0,6.872365315E0
1.043816054E1,-1.535532117E0,4.359574795E0,4.124254704E0,6.194612832E0
1.044811754E1,-1.188033700E0,3.932497978E0,4.215158939E0,5.885875407E0
1.045807354E1,-1.279159546E0,3.738026857E0,4.377434254E0,5.896696073E0
1.046803054E1,-1.729827166E0,3.698216438E0,4.502408028E0,6.077893130E0
1.047798654E1,-2.260519981E0,3.880496979E0,4.507793903E0,6.363050626E0
1.048794354E1,-2.663032055E0,4.052965164E0,4.445614338E0,6.578886926E0
1.049790054E1,-2.752820730E0,3.931346416E0,4.380188942E0,6.497658177E0
1.050785654E1,-2.527028561E0,3.700076342E0,4.347368717E0,6.243080413E0
1.051781354E1,-2.141104698E0,3.485487938E0,4.365421295E0,5.982462585E0
1.052776954E1,-1.811257482E0,3.288051367E0,4.392740250E0,5.778243882E0
1.053772654E1,-1.692759633E0,3.243607283E0,4.359770775E0,5.691574878E0
1.054768354E1,-1.835093975E0,3.348472595E0,4.205413818E0,5.680259149E0
1.055763954E1,-2.100258589E0,3.702461720E0,3.894847870E0,5.769674935E0
1.056759654E1,-2.464670658E0,4.253787041E0,3.462982178E0,6.013447531E0
1.057755254E1,-2.926760674E0,4.630932331E0,3.098278046E0,6.293710284E0
1.058750954E1,-3.349637747E0,4.774656296E0,2.893047094E0,6.510540474E0
1.059746654E1,-3.722721577E0,4.712111950E0,2.823839188E0,6.636017083E0
1.060742254E1,-4.090057373E0,4.467915058E0,2.803598166E0,6.674653321E0
1.061737954E1,-4.417049408E0,4.221105099E0,2.719540596E0,6.687597086E0
1.062733554E1,-4.658831596E0,4.047080040E0,2.519114733E0,6.665546319E0
1.063729254E1,-4.881335735E0,3.853439331E0,2.248198032E0,6.612928824E0
1.064724954E1,-5.136026382E0,3.800924063E0,1.991734147E0,6.692742012E0
1.065720554E1,-5.450607777E0,3.864478111E0,1.795558453E0,6.918623155E0
1.066716179E1,-5.814982414E0,3.856092453E0,1.662365794E0,7.172651498E0
1.067711779E1,-6.185246944E0,3.777762175E0,1.543042898E0,7.410111214E0
1.068707479E1,-6.538461685E0,3.703962564E0,1.350125432E0,7.635028394E0
1.069703179E1,-6.882184505E0,3.623902321E0,1.047696590E0,7.848235454E0
1.070698779E1,-7.151372910E0,3.529427528E0,7.429822087E-1,8.009432922E0
1.071694479E1,-7.353206635E0,3.484128237E0,4.552798271E-1,8.149605948E0
1.072690079E1,-7.557059765E0,3.520210743E0,1.589767337E-1,8.338243794E0
1.073685779E1,-7.764383793E0,3.673343658E0,-1.590363830E-1,8.590948835E0
1.074681479E1,-7.895384312E0,3.953216314E0,-4.808423817E-1,8.842862775E0
1.075677079E1,-7.873141289E0,4.338191986E0,-7.809433937E-1,9.023089052E0
1.076672779E1,-7.700077534E0,4.778096199E0,-9.946901202E-1,9.116512806E0
1.077668379E1,-7.419064045E0,5.144037724E0,-1.111065507E0,9.096048701E0
1.078664079E1,-7.059936523E0,5.287019730E0,-1.201220989E0,8.901584870E0
1.079659779E1,-6.656825542E0,5.128513336E0,-1.288751841E0,8.501520843E0
1.080655379E1,-6.257361889E0,4.658434391E0,-1.436265945E0,7.932115017E0
1.081651079E1,-5.854230881E0,4.003573418E0,-1.602741480E0,7.271134682E0
1.082646679E1,-5.439326763E0,3.270453691E0,-1.764989018E0,6.587664929E0
1.083642379E1,-4.987573147E0,2.594684362E0,-1.889279485E0,5.931074928E0
1.084638079E1,-4.521917820E0,1.876144290E0,-1.898852587E0,5.251028405E0
1.085633679E1,-4.059443474E0,1.147024512E0,-1.779661655E0,4.578421361E0
1.086629379E1,-3.558212757E0,5.050045848E-1,-1.606466055E0,3.936577300E0
1.087624979E1,-3.012682199E0,4.519489408E-2,-1.385622025E0,3.316360205E0
1.088620679E1,-2.509105682E0,-2.213657498E-1,-1.147338033E0,2.767850914E0
1.089616379E1,-2.178073406E0,-3.404554129E-1,-1.077215672E0,2.453631442E0
1.090611979E1,-2.066630602E0,-2.305626422E-1,-1.182350993E0,2.392085920E0
1.091607679E1,-2.199629068E0,6.714440882E-2,-1.318339944E0,2.565325831E0
1.092603279E1,-2.429876089E0,3.739841878E-1,-1.282299757E0,2.772806277E0
1.093598979E1,-2.566520452E0,6.148127913E-1,-1.008768439E0,2.825355865E0
1.094594579E1,-2.489901543E0,7.615467906E-1,-6.361083984E-1,2.680335259E0
1.095590279E1,-2.111366510E0,8.311607838E-1,-2.893432379E-1,2.287447551E0
1.096585979E1,-1.548546076E0,8.654890656E-1,-1.743064635E-2,1.774082890E0
1.097581579E1,-9.645803571E-1,9.258847237E-1,1.922128648E-1,1.350786279E0
1.098577279E1,-4.876484573E-1,9.850855470E-1,2.879062891E-1,1.136259030E0
1.099572879E1,-1.058696955E-1,1.080847740E0,2.535256743E-1,1.115219932E0
1.100568579E1,2.357727289E-1,1.216379523E0,1.552844644E-1,1.248711812E0
1.101564279E1,5.861906409E-1,1.346482396E0,8.996165544E-2,1.471301264E0
1.102559879E1,9.451889396E-1,1.427282095E0,1.014201045E-1,1.714876773E0
1.103555579E1,1.289496064E0,1.467384815E0,1.166512519E-1,1.956942976E0
1.104551179E1,1.602950454E0,1.454939723E0,8.912342787E-2,2.166620119E0
1.105546879E1,1.856140971E0,1.444689155E0,6.066115946E-2,2.352884577E0
1.106542579E1,2.024098635E0,1.418173432E0,4.656066746E-2,2.471914048E0
1.107538179E1,2.070111036E0,1.384035707E0,2.295760252E-2,2.490269381E0
1.108533879E1,1.954946876E0,1.371986866E0,-2.990131266E-2,2.388526603E0
1.109529479E1,1.718882322E0,1.502417564E0,-4.846248031E-2,2.283454310E0
1.110525179E1,1.435905933E0,1.893025875E0,1.811316237E-2,2.376068370E0
1.111520879E1,1.142443657E0,2.421840668E0,1.250870079E-1,2.680697015E0
1.112516479E1,8.869643807E-1,2.894134045E0,2.445979118E-1,3.036864472E0
1.113512179E1,7.445443869E-1,3.203839540E0,3.377688527E-1,3.306512051E0
1.114507779E1,7.158604860E-1,3.342941761E0,3.748152256E-1,3.439215362E0
1.115503479E1,7.498381734E-1,3.350072622E0,3.688950241E-1,3.452727530E0
1.116499179E1,7.832373977E-1,3.247073889E0,3.494448662E-1,3.358431386E0
1.117494779E1,7.928538322E-1,3.100137949E0,2.834397554E-1,3.212446201E0
1.118490479E1,7.948848009E-1,3.052808762E0,1.986628920E-1,3.160846426E0
1.119486079E1,7.995501161E-1,3.070331812E0,8.947356045E-2,3.173991705E0
1.120481779E1,8.284366727E-1,3.153213739E0,-2.687118202E-2,3.260335300E0
1.121477479E1,8.960796595E-1,3.357955933E0,-6.603589654E-2,3.476087965E0
1.122473079E1,1.008203387E0,3.548871040E0,7.769776508E-3,3.689311603E0
1.123468779E1,1.163809419E0,3.642999411E0,1.722862870E-1,3.828260654E0
1.124464379E1,1.292635918E0,3.625685215E0,2.755218446E-1,3.859068953E0
1.125460079E1,1.342281461E0,3.590797186E0,2.526650131E-1,3.841794315E0
1.126455779E1,1.309474945E0,3.467500448E0,1.552143097E-1,3.709767577E0
1.127451379E1,1.277942300E0,3.365615845E0,5.781025067E-2,3.600534483E0
1.128447079E1,1.289269924E0,3.411928654E0,5.172445253E-2,3.647759517E0
1.129442679E1,1.324857235E0,3.569600582E0,1.280016452E-1,3.809682327E0
1.130438379E1,1.350186944E0,3.736001968E0,2.871885002E-1,3.982862379E0
1.131434079E1,1.344959974E0,3.924312830E0,5.336693525E-1,4.182577136E0
1.132429679E1,1.303273559E0,4.087763309E0,8.153496385E-1,4.367279001E0
1.133425379E1,1.248988748E0,4.229669571E0,1.023089290E0,4.527337989E0
1.134420979E1,1.239699841E0,4.276372433E0,1.084707260E0,4.582663714E0
1.135416679E1,1.313303947E0,4.133805275E0,1.012307882E0,4.453973570E0
1.136412379E1,1.526863575E0,3.851207733E0,8.988573551E-1,4.239228459E0
1.137407979E1,1.838630199E0,3.573038340E0,8.303110600E-1,4.103240237E0
1.138403679E1,2.091462374E0,3.415735960E0,7.849465609E-1,4.081373312E0
1.139399279E1,2.148530483E0,3.390460014E0,7.515696883E-1,4.083657594E0
1.140394979E1,2.098379612E0,3.578213215E0,7.355698943E-1,4.212822080E0
1.141390679E1,2.063999891E0,3.860167980E0,7.127641439E-1,4.434977465E0
1.142386279E1,2.100165606E0,4.073578358E0,6.526442170E-1,4.629328319E0
1.143381979E1,2.214465141E0,4.036122322E0,6.008417606E-1,4.642752425E0
1.144377579E1,2.374335527E0,3.823985100E0,5.584976673E-1,4.535664327E0
1.145373279E1,2.487452269E0,3.589046001E0,5.247862935E-1,4.398189473E0
1.146368979E1,2.398609161E0,3.409173489E0,4.318609238E-1,4.190739033E0
1.147364579E1,2.139981508E0,3.374553204E0,2.693745494E-1,4.004958530E0
1.148360279E1,1.848100305E0,3.443412542E0,1.155600175E-1,3.909721063E0
1.149355879E1,1.670100212E0,3.510707617E0,5.160207674E-2,3.888054200E0
1.150351579E1,1.611790419E0,3.555876017E0,9.077065438E-2,3.905171176E0
1.151347279E1,1.636055827E0,3.526771784E0,1.240399256E-1,3.889753692E0
1.152342879E1,1.686104894E0,3.401847601E0,1.232036278E-1,3.798775585E0
1.153338579E1,1.763176680E0,3.199404955E0,1.042539105E-1,3.654566041E0
1.154334179E1,1.836698771E0,3.017222404E0,9.241261333E-2,3.533501592E0
1.155329879E1,1.857515931E0,2.933797359E0,3.732965514E-2,3.472596418E0
1.156325579E1,1.786528707E0,2.901312351E0,-1.031660587E-1,3.408803517E0
1.157321179E1,1.633481860E0,2.884377241E0,-2.480899543E-1,3.324070349E0
1.158316879E1,1.456320286E0,2.917500257E0,-3.185897470E-1,3.276305229E0
1.159312479E1,1.294007540E0,2.943743706E0,-3.301569223E-1,3.232504619E0
1.160308179E1,1.169652462E0,2.961372375E0,-3.379783630E-1,3.201881104E0
1.161303779E1,1.082490563E0,2.988342762E0,-3.442445099E-1,3.196948946E0
1.162299479E1,9.974197149E-1,2.981932878E0,-3.370346725E-1,3.162334921E0
1.163295179E1,8.696276546E-1,2.954940319E0,-3.122462332E-1,3.096033310E0
1.164290779E1,7.453619242E-1,2.940950155E0,-2.819164991E-1,3.047003303E0
1.165286479E1,6.722373962E-1,2.918884039E0,-2.634040713E-1,3.006853647E0
1.166282196E1,6.699197888E-1,2.896665812E0,-2.599088550E-1,2.984462759E0
1.167277796E1,7.287916541E-1,2.884815931E0,-2.609331310E-1,2.986868985E0
1.168273496E1,8.416491151E-1,2.813018560E0,-2.735328972E-1,2.948943353E0
1.169269096E1,9.959686399E-1,2.617619276E0,-3.147181273E-1,2.818320724E0
1.170264796E1,1.224779129E0,2.362228632E0,-3.892241120E-1,2.689182670E0
1.171260496E1,1.517993450E0,2.096114159E0,-4.583302140E-1,2.628319856E0
1.172256096E1,1.821192622E0,1.885142088E0,-5.157263279E-1,2.671418519E0
1.173251796E1,2.063407421E0,1.732856750E0,-5.592706203E-1,2.751949551E0
1.174247396E1,2.201660872E0,1.605309725E0,-5.898646712E-1,2.787879165E0
1.175243096E1,2.240688324E0,1.462454319E0,-6.262458563E-1,2.748024868E0
1.176238696E1,2.196316004E0,1.291738510E0,-6.193485260E-1,2.622209939E0
1.177234396E1,2.113304615E0,1.129918933E0,-5.468295813E-1,2.458006465E0
1.178230096E1,1.991531134E0,1.020106316E0,-4.534633458E-1,2.283077344E0
1.179225696E1,1.810623646E0,9.058938622E-1,-3.808397651E-1,2.060106940E0
1.180221396E1,1.635448217E0,7.981909513E-1,-3.166278899E-1,1.847174298E0
1.181216996E1,1.480620265E0,7.816830277E-1,-2.259134352E-1,1.689467847E0
1.182212696E1,1.334178448E0,9.023144841E-1,-1.491945982E-1,1.617548326E0
1.183208396E1,1.179479957E0,1.092395306E0,-1.204780042E-1,1.612146216E0
1.184203996E1,1.057695508E0,1.266630292E0,-1.437179893E-1,1.656419918E0
1.185199696E1,1.010432959E0,1.399908423E0,-2.010388076E-1,1.738141237E0
1.186195296E1,1.032289147E0,1.507422328E0,-2.427267432E-1,1.843057034E0
1.187190996E1,1.062590003E0,1.544765353E0,-2.601933479E-1,1.892907311E0
1.188186696E1,1.081490755E0,1.539443135E0,-2.511634231E-1,1.898049126E0
1.189182296E1,1.066249728E0,1.508630633E0,-2.646773756E-1,1.866255337E0
1.190177996E1,9.934087992E-1,1.472093344E0,-3.349443674E-1,1.807237556E0
1.191173596E1,8.642478585E-1,1.422707081E0,-4.288732708E-1,1.718997406E0
1.192169296E1,7.438235283E-1,1.400102615E0,-4.742586911E-1,1.654835968E0
1.193164996E1,6.500525475E-1,1.473711371E0,-4.574413598E-1,1.674409185E0
1.194160596E1,5.421961546E-1,1.597037435E0,-4.144491851E-1,1.736742170E0
1.195156296E1,3.986358047E-1,1.711848497E0,-3.557746708E-1,1.793296239E0
1.196151896E1,2.829755247E-1,1.808219433E0,-2.878704667E-1,1.852728278E0
1.197147596E1,2.401963770E-1,1.858986020E0,-2.216986418E-1,1.887504599E0
1.198143296E1,2.805400193E-1,1.837473035E0,-1.559798867E-1,1.865298791E0
1.199138896E1,3.568923175E-1,1.769383669E0,-9.040594101E-2,1.807280811E0
1.200134596E1,4.380346537E-1,1.682897687E0,-2.222325280E-2,1.739112663E0
1.201130196E1,5.001824498E-1,1.629331112E0,2.855710313E-2,1.704616632E0
1.202125896E1,5.488708019E-1,1.681578875E0,8.663939312E-3,1.768909758E0
1.203121596E1,6.230768561E-1,1.745490432E0,-5.839099362E-2,1.854284532E0
1.204117196E1,7.772408128E-1,1.705004573E0,-1.106595248E-1,1.877069366E0
1.205112896E1,9.704872370E-1,1.533412218E0,-1.706799865E-1,1.822726026E0
1.206108496E1,1.163988829E0,1.325528264E0,-2.239146382E-1,1.778210600E0
1.207104196E1,1.327833414E0,1.194292665E0,-2.492676526E-1,1.803222368E0
1.208099896E1,1.422315359E0,1.264429212E0,-2.869452238E-1,1.924603796E0
1.209095496E1,1.407675385E0,1.555022955E0,-3.746276796E-1,2.130725764E0
1.210091196E1,1.336470008E0,1.897070527E0,-4.775891304E-1,2.369202407E0
1.211086796E1,1.282533526E0,2.104056597E0,-5.673059225E-1,2.528592972E0
1.212082496E1,1.323176980E0,2.125889540E0,-6.009798646E-1,2.575146686E0
1.213078196E1,1.425485015E0,1.980992675E0,-5.744518638E-1,2.507256359E0
1.214073796E1,1.499528170E0,1.772440314E0,-5.216382742E-1,2.379545311E0
1.215069496E1,1.480506778E0,1.559831619E0,-4.728835225E-1,2.201952276E0
1.216065096E1,1.396540046E0,1.319278479E0,-4.207119048E-1,1.966676972E0
1.217060796E1,1.273694515E0,1.197250485E0,-3.344907165E-1,1.779772593E0
1.218056496E1,1.143971205E0,1.214925051E0,-2.755314708E-1,1.691339879E0
1.219052096E1,1.060531974E0,1.274791002E0,-2.756289542E-1,1.681009068E0
1.220047796E1,1.037263513E0,1.290158272E0,-3.079764545E-1,1.683827027E0
1.221043396E1,1.029383183E0,1.251342416E0,-3.501358926E-1,1.657734213E0
1.222039096E1,9.840716124E-1,1.173776746E0,-3.588131070E-1,1.573180102E0
1.223034796E1,8.749706745E-1,1.084240198E0,-3.547317982E-1,1.437701338E0
1.224030396E1,7.769045830E-1,1.090413690E0,-3.759712875E-1,1.390660690E0
1.225026096E1,7.191699147E-1,1.237900853E0,-4.273511171E-1,1.494065884E0
1.226021696E1,6.455073357E-1,1.365623355E0,-4.606837928E-1,1.579188534E0
1.227017396E1,5.886451602E-1,1.408929229E0,-4.525704682E-1,1.592609408E0
1.228012996E1,6.098370552E-1,1.352822781E0,-4.356249869E-1,1.546544483E0
1.229008696E1,6.763758659E-1,1.232074261E0,-3.856949806E-1,1.457481360E0
1.230004396E1,7.090386748E-1,1.086213589E0,-2.977142930E-1,1.330875502E0
1.230999996E1,6.862137914E-1,1.047164798E0,-2.058139294E-1,1.268780066E0
1.231995696E1,6.121532321E-1,1.190822601E0,-1.500866115E-1,1.347336646E0
1.232991296E1,5.024864078E-1,1.374937892E0,-9.914114326E-2,1.467234052E0
1.233986996E1,4.102966487E-1,1.512790322E0,-8.278927952E-2,1.569627970E0
1.234982696E1,3.985475898E-1,1.607848048E0,-1.272313148E-1,1.661385968E0
1.235978296E1,4.559693635E-1,1.572262764E0,-1.605506539E-1,1.644899624E0
1.236973996E1,5.309650302E-1,1.380413413E0,-1.782654822E-1,1.489712602E0
1.237969596E1,6.148008704E-1,1.192314982E0,-1.855978817E-1,1.354267958E0
1.238965296E1,6.356576681E-1,1.116644740E0,-1.681057066E-1,1.295845545E0
1.239960996E1,5.339787006E-1,1.101279736E0,-1.293380558E-1,1.230722813E0
1.240956596E1,4.005830586E-1,1.194201946E0,-1.414434463E-1,1.267513836E0
1.241952296E1,3.084658682E-1,1.384135008E0,-2.359716445E-1,1.437589486E0
1.242947896E1,2.602083385E-1,1.492973804E0,-3.458171785E-1,1.554435165E0
1.243943596E1,2.542383671E-1,1.459036112E0,-3.990148902E-1,1.533830631E0
1.244939296E1,2.844468653E-1,1.307263851E0,-3.823341727E-1,1.391412310E0
1.245934896E1,3.109364808E-1,1.113195181E0,-2.969368100E-1,1.193338374E0
1.246930596E1,2.923223078E-1,9.957095385E-1,-1.725900918E-1,1.051987242E0
1.247926196E1,2.309511304E-1,1.016170502E0,-5.895718187E-2,1.043751341E0
1.248921896E1,1.625036299E-1,1.126482010E0,-3.435356542E-2,1.138661194E0
1.249917596E1,1.618655026E-1,1.282314777E0,-1.134743020E-1,1.297462156E0
1.250913196E1,2.548271418E-1,1.377213597E0,-2.226934731E-1,1.418184243E0
1.251908896E1,4.389666915E-1,1.363302469E0,-3.376263678E-1,1.471488003E0
1.252904496E1,6.793742180E-1,1.224547029E0,-4.226424694E-1,1.462768406E0
1.253900196E1,9.329870939E-1,1.033380508E0,-4.671406150E-1,1.468523254E0
1.254895896E1,1.136117220E0,9.010440111E-1,-4.886672199E-1,1.530175905E0
1.255891496E1,1.236707807E0,9.312790036E-1,-5.487282276E-1,1.642507062E0
1.256887196E1,1.266135931E0,1.125435114E0,-7.196727991E-1,1.840552452E0
1.257882796E1,1.313808680E0,1.260958433E0,-9.339076281E-1,2.046531914E0
1.258878496E1,1.425824523E0,1.235012531E0,-1.086093426E0,2.176655796E0
1.259874196E1,1.594241858E0,1.079175949E0,-1.203429937E0,2.270346107E0
1.260869796E1,1.777461290E0,8.537803292E-1,-1.298977733E0,2.361281991E0
1.261865496E1,1.949354291E0,7.014171481E-1,-1.382201195E0,2.490471504E0
1.262861096E1,2.088480711E0,6.286050081E-1,-1.490664244E0,2.641775127E0
1.263856796E1,2.251955986E0,7.396396399E-1,-1.686254740E0,2.908922070E0
1.264852496E1,2.462594509E0,1.011555791E0,-1.997432232E0,3.328265668E0
1.265848096E1,2.659097672E0,9.699943662E-1,-2.298890352E0,3.646448457E0
1.266843783E1,2.915109873E0,5.967137814E-1,-2.538702011E0,3.911386047E0
1.267839383E1,3.298213959E0,1.379279941E-1,-2.735965490E0,4.287510538E0
1.268835083E1,3.719121456E0,-2.749424279E-1,-2.932432652E0,4.744114143E0
1.269830783E1,4.021979332E0,-4.153906405E-1,-3.113749743E0,5.103362087E0
1.270826383E1,4.086924076E0,-2.226659209E-1,-3.238092661E0,5.218981950E0
1.271822083E1,3.758775234E0,-1.186200976E-1,-3.296570539E0,5.000983834E0
1.272817683E1,3.273890257E0,-8.351510763E-2,-3.382285833E0,4.707992103E0
1.273813383E1,2.935966015E0,-4.589962959E-2,-3.531942844E0,4.593106081E0
1.274808983E1,2.820620775E0,-1.906379014E-1,-3.675457716E0,4.636942289E0
1.275804683E1,2.868999720E0,-4.997041821E-1,-3.780186892E0,4.771863011E0
1.276800383E1,3.011460781E0,-8.769236207E-1,-3.835193634E0,4.954452672E0
1.277795983E1,3.155055285E0,-1.197903633E0,-3.912910223E0,5.167224920E0
1.278791683E1,3.302074194E0,-1.275605083E0,-4.128587723E0,5.438391205E0
1.279787283E1,3.390887976E0,-1.292807341E0,-4.466171265E0,5.754664008E0
1.280782983E1,3.390734911E0,-1.351437330E0,-4.847983837E0,6.068477023E0
1.281778683E1,3.349195957E0,-1.399018288E0,-5.225302696E0,6.362244415E0
1.282774283E1,3.228293896E0,-1.516941905E0,-5.439579487E0,6.504768959E0
1.283769983E1,3.040788889E0,-1.629725933E0,-5.429052353E0,6.432496649E0
1.284765583E1,2.826755524E0,-1.647234917E0,-5.252444744E0,6.188061526E0
1.285761283E1,2.555880785E0,-1.628238440E0,-4.952193737E0,5.805851343E0
1.286756983E1,2.235447645E0,-1.482252240E0,-4.628000736E0,5.349082977E0
1.287752583E1,1.830971479E0,-1.316375256E0,-4.327529430E0,4.879837225E0
1.288748283E1,1.356965065E0,-1.184541345E0,-3.993641138E0,4.381057170E0
1.289743883E1,9.115217924E-1,-1.019559979E0,-3.599305391E0,3.850373207E0
1.290739583E1,5.130265951E-1,-8.981299400E-1,-3.123145580E0,3.289965348E0
1.291735283E1,1.880836040E-1,-7.906162739E-1,-2.604013920E0,2.727881601E0
1.292730883E1,-3.069854341E-2,-6.689649224E-1,-2.129274368E0,2.232098968E0
1.293726583E1,-1.659674495E-1,-5.664665103E-1,-1.743776202E0,1.840973912E0
1.294722183E1,-2.301858515E-1,-4.846584797E-1,-1.447092891E0,1.543359065E0
1.295717883E1,-2.668752670E-1,-4.427417517E-1,-1.270344496E0,1.371502025E0
1.296713583E1,-3.324481547E-1,-4.625727236E-1,-1.141011000E0,1.275304435E0
1.297709183E1,-3.850873113E-1,-5.200182199E-1,-1.075770974E0,1.255386146E0
1.298704883E1,-3.584375978E-1,-6.368883848E-1,-1.096133947E0,1.317427021E0
1.299700483E1,-2.848660052E-1,-7.602592111E-1,-1.130683303E0,1.391972500E0
1.300696183E1,-1.978616118E-1,-8.616806269E-1,-1.130885482E0,1.435459750E0
1.301691883E1,-5.911969766E-2,-1.038394690E0,-1.116032243E0,1.525544702E0
1.302687483E1,1.708349437E-1,-1.154061913E0,-1.072001934E0,1.584371050E0
1.303683183E1,4.445658326E-1,-1.113231778E0,-1.033822775E0,1.582944504E0
1.304678783E1,6.198586226E-1,-1.012826324E0,-1.077598214E0,1.603514822E0
1.305674483E1,5.939873457E-1,-1.055093646E0,-1.153713465E0,1.672452788E0
1.306670183E1,3.856519759E-1,-1.115967393E0,-1.087319613E0,1.605108909E0
1.307665783E1,1.929051429E-1,-9.372442365E-1,-7.896782160E-1,1.240657422E0
1.308661483E1,1.849923581E-1,-4.203518033E-1,-3.572152257E-1,5.818251701E-1
1.309657083E1,3.767713308E-1,3.579170704E-1,1.148320436E-1,5.322101683E-1
1.310652783E1,5.955164433E-1,9.089325666E-1,5.826240182E-1,1.232983776E0
1.311648483E1,7.339237332E-1,1.182556033E0,9.315237999E-1,1.674759507E0
1.312644083E1,8.180886507E-1,1.285304785E0,1.097668052E0,1.877805257E0
1.313639783E1,8.486800790E-1,1.260669827E0,1.150443077E0,1.906060220E0
1.314635383E1,8.022318482E-1,1.197777152E0,1.179222226E0,1.862474457E0
1.315631083E1,6.862388253E-1,1.032805562E0,1.167324424E0,1.703014200E0
1.316626783E1,5.406206250E-1,8.081855178E-1,1.108277082E0,1.474351580E0
1.317622383E1,4.210711718E-1,6.468572021E-1,1.070387363E0,1.319641724E0
1.318618083E1,3.481796384E-1,6.560421586E-1,1.109128356E0,1.334835602E0
1.319613683E1,3.115716875E-1,7.492969036E-1,1.226672888E0,1.470798810E0
1.320609383E1,2.858567238E-1,7.844730020E-1,1.368048429E0,1.602706605E0
1.321604983E1,2.532884479E-1,7.809085250E-1,1.502712727E0,1.712343044E0
1.322600683E1,2.140390575E-1,8.250957131E-1,1.642493010E0,1.850507752E0
1.323596383E1,1.936694384E-1,8.987629414E-1,1.802324414E0,2.023278520E0
1.324591983E1,2.762255967E-1,9.749634266E-1,1.968981504E0,2.214439529E0
1.325587683E1,5.029137135E-1,1.058600903E0,2.111768484E0,2.415186164E0
1.326583283E1,8.452958465E-1,1.161014676E0,2.229343414E0,2.651877110E0
1.327578983E1,1.212800264E0,1.193946123E0,2.318995953E0,2.876479455E0
1.328574683E1,1.537070513E0,1.169241905E0,2.326104164E0,3.023321514E0
1.329570283E1,1.760852337E0,1.093437433E0,2.247992754E0,3.057724284E0
1.330565983E1,1.855649114E0,9.060443640E-1,2.131981850E0,2.968113311E0
1.331561583E1,1.879339337E0,7.401189804E-1,1.984704137E0,2.831738505E0
1.332557283E1,1.890587449E0,7.278034091E-1,1.831440806E0,2.730969449E0
1.333552983E1,1.875805736E0,7.927762866E-1,1.719257474E0,2.665143084E0
1.334548583E1,1.828374863E0,8.454935551E-1,1.641292930E0,2.598394980E0
1.335544283E1,1.801838636E0,9.311318994E-1,1.573396087E0,2.566944552E0
1.336539883E1,1.805913568E0,1.130125999E0,1.493286610E0,2.601617475E0
1.337535583E1,1.804618478E0,1.342424512E0,1.436375499E0,2.668693687E0
1.338531283E1,1.739706755E0,1.475091696E0,1.417759657E0,2.685613067E0
1.339526883E1,1.645319343E0,1.527934194E0,1.466618538E0,2.681907637E0
1.340522583E1,1.563043952E0,1.586389542E0,1.612517953E0,2.749536747E0
1.341518183E1,1.534803510E0,1.706194639E0,1.858286142E0,2.952956035E0
1.342513883E1,1.547904134E0,1.857918859E0,2.176132202E0,3.253217031E0
1.343509583E1,1.581105947E0,2.053447962E0,2.526273966E0,3.619199456E0
1.344505183E1,1.574769139E0,2.310189486E0,2.870616436E0,4.007157599E0
1.345500883E1,1.455958366E0,2.573621511E0,3.161826134E0,4.329028407E0
1.346496483E1,1.193826914E0,2.720486641E0,3.410687208E0,4.523168966E0
1.347492183E1,8.450890183E-1,2.789469004E0,3.618187189E0,4.646137246E0
1.348487883E1,4.909426868E-1,2.818487644E0,3.792287827E0,4.750404644E0
1.349483483E1,1.813459992E-1,2.745951891E0,3.960583687E0,4.822796004E0
1.350479183E1,-3.774800524E-2,2.551308155E0,4.165757179E0,4.885092741E0
1.351474783E1,-1.287299991E-1,2.268535852E0,4.374149323E0,4.929098155E0
1.352470483E1,-1.274309158E-1,1.991867542E0,4.544126034E0,4.963149842E0
1.353466183E1,-1.012568101E-1,1.725537539E0,4.627668381E0,4.939944067E0
1.354461783E1,-1.302011162E-1,1.472908020E0,4.599983215E0,4.831796348E0
1.355457483E1,-2.293158919E-1,1.296037078E0,4.514889240E0,4.702820721E0
1.356453083E1,-4.049426019E-1,1.174101353E0,4.355041504E0,4.528672984E0
1.357448783E1,-6.022633314E-1,9.960730076E-1,4.165532589E0,4.325106277E0
1.358444483E1,-6.860210299E-1,7.991112471E-1,4.009290218E0,4.145312014E0
1.359440083E1,-6.347155571E-1,6.812080741E-1,3.878446817E0,3.988641121E0
1.360435783E1,-5.142778158E-1,6.170463562E-1,3.768079758E0,3.852746155E0
1.361431383E1,-4.095223546E-1,5.326225758E-1,3.680699587E0,3.741516379E0
1.362427083E1,-3.284842372E-1,4.632802606E-1,3.588221550E0,3.632886509E0
1.363422683E1,-2.832891047E-1,4.533364177E-1,3.501623154E0,3.542193012E0
1.364418383E1,-2.961199582E-1,4.500940144E-1,3.459913731E0,3.501610297E0
1.365414083E1,-3.461133838E-1,4.032829404E-1,3.453744888E0,3.494393418E0
1.366409683E1,-3.716309965E-1,3.932082057E-1,3.470249653E0,3.512172397E0
1.367405358E1,-3.760855496E-1,4.375138581E-1,3.451364756E0,3.499253834E0
1.368400958E1,-4.001653194E-1,5.090381503E-1,3.442200184E0,3.502569661E0
1.369396658E1,-4.546109438E-1,5.746458769E-1,3.449726105E0,3.526683880E0
1.370392358E1,-5.174042583E-1,6.484490037E-1,3.490170479E0,3.587406201E0
1.371387958E1,-5.707070827E-1,7.103640437E-1,3.586269379E0,3.700223197E0
1.372383658E1,-6.198160648E-1,7.644680738E-1,3.745744944E0,3.872878590E0
1.373379258E1,-7.343668938E-1,8.228843212E-1,3.988661289E0,4.138339307E0
1.374374958E1,-9.547397494E-1,8.500978351E-1,4.317926884E0,4.503186304E0
1.375370658E1,-1.211003542E0,8.556874990E-1,4.685017109E0,4.914073258E0
1.376366258E1,-1.410087109E0,8.803286552E-1,5.020172119E0,5.288237164E0
1.377361958E1,-1.531111598E0,9.099251032E-1,5.273817062E0,5.566454242E0
1.378357558E1,-1.600885630E0,9.294191599E-1,5.428570747E0,5.735506528E0
1.379353258E1,-1.648219585E0,9.138729572E-1,5.529135704E0,5.841500939E0
1.380348958E1,-1.699609756E0,9.082784653E-1,5.609405994E0,5.931195386E0
1.381344558E1,-1.777545094E0,9.658064842E-1,5.673403740E0,6.023284712E0
1.382340258E1,-1.894346714E0,1.067318201E0,5.694359303E0,6.095362621E0
1.383335858E1,-2.055847645E0,1.193111777E0,5.669502258E0,6.147624021E0
1.384331558E1,-2.220330715E0,1.297822714E0,5.615653038E0,6.176550115E0
1.385327258E1,-2.364507675E0,1.349458218E0,5.539967537E0,6.172776874E0
1.386322858E1,-2.479937553E0,1.345075727E0,5.432155132E0,6.121080653E0
1.387318558E1,-2.565663338E0,1.287648797E0,5.273278236E0,6.004009589E0
1.388314158E1,-2.656550646E0,1.175595045E0,5.078128815E0,5.850357024E0
1.389309858E1,-2.778292894E0,9.871264100E-1,4.841337204E0,5.668498556E0
1.390305558E1,-2.901474237E0,7.643578053E-1,4.570806026E0,5.467637821E0
1.391301158E1,-2.998278618E0,5.178093314E-1,4.296484470E0,5.264748805E0
1.392296858E1,-3.060202360E0,2.579305768E-1,4.055369854E0,5.086982536E0
1.393292458E1,-3.102059364E0,7.415522356E-3,3.883764982E0,4.970559096E0
1.394288158E1,-3.173888445E0,-1.852894723E-1,3.808631897E0,4.961207210E0
1.395283858E1,-3.299818039E0,-2.910816073E-1,3.816921949E0,5.053951005E0
1.396279458E1,-3.466532230E0,-3.068818748E-1,3.877727270E0,5.210354208E0
1.397275158E1,-3.663944721E0,-2.056260854E-1,3.949701786E0,5.391374334E0
1.398270758E1,-3.881004095E0,-1.278978866E-2,4.017411232E0,5.585870512E0
1.399266458E1,-4.100513458E0,1.898660809E-1,4.091587067E0,5.795804040E0
1.400262158E1,-4.294066906E0,3.574521542E-1,4.184099197E0,6.006119274E0
1.401257758E1,-4.435616016E0,4.937633872E-1,4.303765774E0,6.200071900E0
1.402253458E1,-4.520549774E0,5.572001338E-1,4.420700550E0,6.347317197E0
1.403249058E1,-4.521668434E0,5.335221291E-1,4.510004044E0,6.408608879E0
1.404244758E1,-4.447042942E0,4.575918913E-1,4.556170940E0,6.383124228E0
1.405240358E1,-4.300348759E0,3.583020568E-1,4.555731773E0,6.275035602E0
1.406236058E1,-4.087887287E0,2.475739121E-1,4.524869919E0,6.102996239E0
1.407231758E1,-3.810652018E0,1.719629318E-1,4.476661205E0,5.881422923E0
1.408227358E1,-3.507208586E0,1.216065437E-1,4.438256264E0,5.658040198E0
1.409223058E1,-3.232842684E0,5.198386312E-2,4.401138783E0,5.461135113E0
1.410218658E1,-3.050579309E0,2.652777173E-2,4.353301048E0,5.315822407E0
1.411214358E1,-2.994003057E0,6.513889879E-2,4.270683765E0,5.216036542E0
1.412210058E1,-3.101160288E0,1.350418180E-1,4.140849113E0,5.175138916E0
1.413205658E1,-3.344669580E0,1.401673853E-1,4.013780117E0,5.226556450E0
1.414201358E1,-3.641226768E0,5.374940857E-2,3.951066256E0,5.373299353E0
1.415196958E1,-3.857100487E0,-9.154702723E-2,3.956164122E0,5.526014801E0
1.416192658E1,-3.954108477E0,-2.333212048E-1,3.994818687E0,5.625654537E0
1.417188358E1,-4.020777225E0,-2.360454053E-1,3.995056629E0,5.672992544E0
1.418183958E1,-4.178716183E0,-7.913435251E-2,3.874610901E0,5.699170186E0
1.419179658E1,-4.462337971E0,8.032824099E-2,3.599561691E0,5.733738498E0
1.420175258E1,-4.816217422E0,1.201576814E-1,3.207670212E0,5.787878395E0
1.421170958E1,-5.072940826E0,8.451583236E-2,2.883742571E0,5.835909764E0
1.422166658E1,-5.166510105E0,-7.548661530E-2,2.762161255E0,5.859015249E0
1.423162258E1,-5.146905422E0,-3.225837648E-1,2.762762785E0,5.850431943E0
1.424157958E1,-5.095007896E0,-5.317886472E-1,2.693716049E0,5.787746607E0
1.425153558E1,-5.088384151E0,-6.738944054E-1,2.395893574E0,5.664458753E0
1.426149258E1,-5.141576767E0,-7.606098652E-1,1.892347813E0,5.531303577E0
1.427144958E1,-5.135786057E0,-8.691241145E-1,1.388370633E0,5.390663054E0
1.428140558E1,-4.900141239E0,-1.153603911E0,1.124851704E0,5.158243645E0
1.429136258E1,-4.321602345E0,-1.697464466E0,1.230645895E0,4.803344851E0
1.430131858E1,-3.556813478E0,-2.588143110E0,1.645441651E0,4.696475818E0
1.431127558E1,-2.825249672E0,-3.727699280E0,1.997009873E0,5.085845659E0
1.432123258E1,-2.217200041E0,-4.787680149E0,2.052115917E0,5.661186887E0
1.433118858E1,-1.843408942E0,-5.583340168E0,1.804900885E0,6.150569987E0
1.434114558E1,-1.718364239E0,-6.061674118E0,1.464067698E0,6.468397251E0
1.435110158E1,-1.738663435E0,-6.132654190E0,1.337372422E0,6.513137719E0
1.436105858E1,-1.715003610E0,-5.913301945E0,1.640708566E0,6.371836617E0
1.437101558E1,-1.511863947E0,-5.481650352E0,2.220667601E0,6.104554674E0
1.438097158E1,-1.138805985E0,-4.946645260E0,2.819872141E0,5.806707956E0
1.439092858E1,-7.803998590E-1,-4.441197872E0,3.234953642E0,5.549611477E0
1.440088458E1,-5.776997805E-1,-3.938314438E0,3.343683720E0,5.198488094E0
1.441084158E1,-6.038540006E-1,-3.197205305E0,3.230252743E0,4.584898494E0
1.442079758E1,-7.854672074E-1,-2.438000917E0,3.057872534E0,3.988908578E0
1.443075458E1,-1.026215315E0,-1.768140197E0,2.926910162E0,3.570187772E0
1.444071158E1,-1.205437422E0,-1.346237659E0,2.913722277E0,3.428587569E0
1.445066758E1,-1.261637688E0,-1.103650212E0,2.987804174E0,3.425893640E0
1.446062458E1,-1.157953978E0,-9.577966332E-1,3.037488461E0,3.388888896E0
1.447058058E1,-9.164106250E-1,-8.710640669E-1,2.917211294E0,3.179415477E0
1.448053758E1,-5.631132722E-1,-8.228776455E-1,2.627810478E0,2.810624857E0
1.449049458E1,-1.560483426E-1,-8.151751161E-1,2.256838322E0,2.404616553E0
1.450045058E1,2.384249419E-1,-7.432255149E-1,1.899539948E0,2.053651049E0
1.451040758E1,6.131872535E-1,-6.042470932E-1,1.641872287E0,1.853876415E0
1.452036358E1,9.344015121E-1,-6.146091819E-1,1.520722389E0,1.887709516E0
1.453032058E1,1.175477743E0,-8.250713348E-1,1.506451011E0,2.081318159E0
1.454027758E1,1.350449800E0,-1.116649628E0,1.491904855E0,2.301391134E0
1.455023358E1,1.495451331E0,-1.408013940E0,1.414874554E0,2.494142727E0
1.456019058E1,1.621026516E0,-1.570917964E0,1.231699944E0,2.571496639E0
1.457014658E1,1.817572474E0,-1.658750415E0,9.629328847E-1,2.642397090E0
1.458010358E1,2.103815794E0,-1.642752171E0,6.826668978E-1,2.755124259E0
1.459006058E1,2.410346270E0,-1.519716144E0,4.570497870E-1,2.885862229E0
1.460001658E1,2.675826311E0,-1.330608845E0,3.111993968E-1,3.004565095E0
1.460997358E1,2.845342875E0,-1.091647029E0,2.501731813E-1,3.057818819E0
1.461992958E1,2.922006369E0,-7.514629960E-1,2.351161987E-1,3.026234869E0
1.462988658E1,2.863445759E0,-1.147511229E-1,2.570259571E-1,2.877247257E0
1.463984358E1,2.723441601E0,7.534417510E-1,3.615366518E-1,2.848774715E0
1.464979958E1,2.493651390E0,1.405420661E0,4.835554361E-1,2.902986454E0
1.465975658E1,2.143431902E0,1.688058496E0,5.311766863E-1,2.779566598E0
1.466971279E1,1.843079567E0,1.817135811E0,5.212827325E-1,2.640200851E0
1.467966979E1,1.747422814E0,1.902455807E0,5.102322102E-1,2.633089724E0
1.468962679E1,1.797291160E0,1.805952787E0,5.068508983E-1,2.597810389E0
1.469958279E1,1.925707817E0,1.538627386E0,5.264339447E-1,2.520487558E0
1.470953979E1,2.105806112E0,1.295356393E0,5.864998102E-1,2.540934788E0
1.471949579E1,2.277760029E0,1.147603154E0,6.440722942E-1,2.630591734E0
1.472945279E1,2.396365404E0,1.017387748E0,6.360484958E-1,2.679963184E0
1.473940879E1,2.453927755E0,9.972720742E-1,5.887405872E-1,2.713471669E0
1.474936579E1,2.477535725E0,1.298671007E0,6.578733325E-1,2.873591302E0
1.475932279E1,2.474527597E0,1.638255715E0,7.965925932E-1,3.072739556E0
1.476927879E1,2.400547028E0,1.877972245E0,8.281632066E-1,3.158363513E0
1.477923579E1,2.359981060E0,2.067668200E0,7.149176002E-1,3.218053692E0
1.478919179E1,2.394222975E0,2.287781000E0,5.567339063E-1,3.358005092E0
1.479914879E1,2.394370556E0,2.425894022E0,4.058730304E-1,3.432594512E0
1.480910579E1,2.302402735E0,2.399725199E0,2.671707273E-1,3.336333254E0
1.481906179E1,2.119062901E0,2.293441296E0,1.380444467E-1,3.125597035E0
1.482901879E1,1.888715506E0,2.166679621E0,2.857388556E-2,2.874467482E0
1.483897479E1,1.606199622E0,1.942329049E0,-7.951662689E-2,2.521674494E0
1.484893179E1,1.291880727E0,1.641460299E0,-2.149109095E-1,2.099889146E0
1.485888879E1,9.703516364E-1,1.322471142E0,-3.575737774E-1,1.678800532E0
1.486884479E1,6.938061714E-1,9.876527190E-1,-4.708789587E-1,1.295589399E0
1.487880179E1,3.998525441E-1,6.419792175E-1,-5.266032219E-1,9.215911925E-1
1.488875779E1,2.235096134E-2,3.989073336E-1,-5.214976668E-1,6.569523901E-1
1.489871479E1,-4.004383981E-1,2.219948769E-1,-3.914824724E-1,6.024044839E-1
1.490867179E1,-8.168135285E-1,1.234028488E-1,-1.828156263E-1,8.460698297E-1
1.491862779E1,-1.128255248E0,6.036236137E-2,1.263404079E-2,1.129939440E0
1.492858479E1,-1.292807341E0,-4.745265841E-2,1.235407069E-1,1.299563342E0
1.493854079E1,-1.306971669E0,-1.446455270E-1,1.652668566E-1,1.325296347E0
1.494849779E1,-1.069900870E0,-4.695227742E-2,2.190641910E-1,1.093106357E0
1.495845479E1,-6.075948477E-1,1.743974239E-1,3.094201982E-1,7.037945861E-1
1.496841079E1,-6.408698857E-2,3.560328484E-1,3.835626543E-1,5.272445741E-1
1.497836779E1,4.607181847E-1,7.062041163E-1,5.133036375E-1,9.871505072E-1
1.498832379E1,9.588539004E-1,1.126193166E0,7.567347884E-1,1.661432932E0
1.499828079E1,1.344308615E0,1.549715757E0,9.681442380E-1,2.268499029E0
1.500823779E1,1.482485414E0,1.762462139E0,1.079499006E0,2.543492461E0
1.501819379E1,1.366434455E0,1.689934134E0,1.092378378E0,2.432346813E0
1.502815079E1,1.148350000E0,1.395788193E0,1.047413707E0,2.089020793E0
1.503810679E1,9.576654434E-1,9.607073069E-1,9.720653892E-1,1.668829755E0
1.504806379E1,9.649595618E-1,5.611864328E-1,8.334248662E-1,1.393080822E0
1.505801979E1,1.169820786E0,1.907718778E-1,6.957588792E-1,1.374392592E0
1.506797679E1,1.382661939E0,-2.500664890E-1,5.734114647E-1,1.517592829E0
1.507793379E1,1.503950834E0,-5.583028793E-1,4.689409733E-1,1.671369454E0
1.508788979E1,1.533876300E0,-4.486591220E-1,4.428664446E-1,1.658373359E0
1.509784679E1,1.532345176E0,-7.270493358E-2,5.352914929E-1,1.624778363E0
1.510780279E1,1.593137264E0,3.089173138E-1,7.117334604E-1,1.772027305E0
1.511775979E1,1.627497911E0,6.221386194E-1,8.683750033E-1,1.946761685E0
1.512771679E1,1.636937618E0,7.930240631E-1,9.450304508E-1,2.049764495E0
1.513767279E1,1.712535381E0,9.294154644E-1,1.038685799E0,2.208044095E0
1.514762979E1,1.782623649E0,1.042606473E0,1.136508346E0,2.357207362E0
1.515758579E1,1.731086969E0,9.941915870E-1,1.153442144E0,2.305538503E0
1.516754279E1,1.564074039E0,9.024561644E-1,1.121069670E0,2.125453348E0
1.517749979E1,1.333253384E0,8.696777225E-1,1.080459476E0,1.923875413E0
1.518745579E1,1.062779069E0,7.594627738E-1,1.002935529E0,1.646864514E0
1.519741279E1,8.107838631E-1,5.421818495E-1,8.804349303E-1,1.313962441E0
1.520736879E1,6.377811432E-1,2.447260171E-1,7.463954687E-1,1.011811151E0
1.521732579E1,5.740570426E-1,-1.683891118E-1,6.349381804E-1,8.723777130E-1
1.522728279E1,5.667241216E-1,-7.159337997E-1,5.298385024E-1,1.055682847E0
1.523723879E1,5.143967271E-1,-1.272496343E0,4.052795172E-1,1.431119290E0
1.524719579E1,3.408451378E-1,-1.645375490E0,1.809576899E-1,1.690024141E0
1.525715179E1,2.496992350E-1,-1.540622354E0,2.222294919E-3,1.560727998E0
1.526710879E1,2.180430144E-1,-1.589025736E0,-1.405496150E-4,1.603915698E0
1.527706579E1,2.182267755E-1,-1.586114883E0,-2.696651500E-3,1.601059218E0
1.528702179E1,2.211214900E-1,-1.586577177E0,-4.136225209E-3,1.601917276E0
1.529697879E1,2.233111411E-1,-1.578907371E0,-6.941866130E-3,1.594636178E0
1.530693479E1,2.278186381E-1,-1.570648074E0,-9.890359826E-3,1.587115158E0
1.531689179E1,2.315420061E-1,-1.559103727E0,-1.240651496E-2,1.576251901E0
1.532684879E1,2.354461104E-1,-1.550788045E0,-1.688264683E-2,1.568650202E0
1.533680479E1,2.399407178E-1,-1.539776683E0,-1.512469351E-2,1.558432718E0
1.534676179E1,2.471476197E-1,-1.524834633E0,-1.860201359E-2,1.544845830E0
1.535671779E1,2.520515621E-1,-1.510847688E0,-2.090564743E-2,1.531870677E0
1.536667479E1,2.580907643E-1,-1.494316459E0,-2.181572467E-2,1.516597655E0
1.537663079E1,2.584553659E-1,-1.479996443E0,-2.505759150E-2,1.502603251E0
1.538658779E1,2.567898035E-1,-1.461005330E0,-2.697408386E-2,1.483645908E0
1.539654479E1,2.606013119E-1,-1.443931818E0,-2.733360976E-2,1.467514656E0
1.540650079E1,2.623152733E-1,-1.420374393E0,-2.924707159E-2,1.444689625E0
1.541645779E1,2.603621185E-1,-1.400562882E0,-3.340240195E-2,1.424949312E0
1.542641379E1,2.652361095E-1,-1.374066353E0,-3.340866417E-2,1.399830231E0
1.543637079E1,2.705757320E-1,-1.342085004E0,-3.761432692E-2,1.369605134E0
1.544632779E1,2.830947936E-1,-1.293756604E0,-4.062362760E-2,1.324990223E0
1.545628379E1,2.185011292E1,3.328322601E1,-6.592964649E0,4.035675595E1
1.546624079E1,-9.475978851E0,-1.812547302E1,2.123180628E0,2.056294832E1
1.547619679E1,3.748744249E0,-1.169761753E1,2.644938469E0,1.256515176E1
1.548615379E1,4.289966583E0,-1.086886215E1,2.275922298E0,1.190444455E1
1.549611079E1,4.349168301E0,-1.031573963E1,1.992986321E0,1.137109245E1
1.550606679E1,2.750450373E0,-6.227751732E0,1.823976278E0,7.048174115E0
1.551602379E1,1.379004955E0,-3.000131845E0,1.741727710E0,3.733103424E0
1.552597979E1,1.179870129E0,-2.448720217E0,1.713934302E0,3.213393069E0
1.553593679E1,1.104325056E0,-2.197806358E0,1.680519819E0,2.978931601E0
1.554589379E1,9.542966485E-1,-1.786349177E0,1.688401937E0,2.636745452E0
1.555584979E1,1.896455735E-1,-1.288777143E-1,1.853371739E0,1.867501463E0
1.556580679E1,-1.411869168E0,3.251674652E0,2.167260170E0,4.154970425E0
1.557576279E1,-1.968319058E0,4.286406994E0,2.247116566E0,5.224662448E0
1.558571979E1,-2.267673731E0,5.278379440E0,2.249276638E0,6.169512060E0
1.559567679E1,-2.377363145E-1,1.362720871E1,6.443246603E-1,1.364450402E1
1.560563279E1,3.850589097E-1,1.552874565E1,1.446204484E-1,1.553419219E1
1.561558979E1,3.711007535E-1,1.554329681E1,1.628923863E-1,1.554857953E1
1.562554579E1,3.342972517E0,1.786910653E0,1.623149067E-1,3.794056017E0
1.563550279E1,-2.053454876E0,-5.109018326E0,-5.823427439E-1,5.536954781E0
1.564545979E1,-1.614482999E0,7.922062278E-1,-4.168231487E-1,1.846046478E0
1.565541579E1,-7.709532380E-1,1.726982832E0,-4.942913055E-1,1.954779397E0
1.566537279E1,4.437392652E-1,1.762795448E0,-4.399729669E-1,1.870274990E0
1.567532917E1,2.073011637E0,5.438587070E-1,-4.674693048E-1,2.193555810E0
1.568528617E1,7.159847617E-1,-1.106789894E-2,-3.134181798E-1,7.816569790E-1
1.569524317E1,-4.967487752E-1,-2.953241169E-1,1.886710525E-1,6.079247040E-1
1.570519917E1,9.608867764E-2,2.361197770E-2,-3.314333782E-2,1.043505645E-1
1.571515617E1,1.490263501E-3,7.428473979E-2,1.695333747E-3,7.431902588E-2
1.572511217E1,-3.939448856E-3,-1.335689612E-2,-2.200673800E-3,1.409854235E-2
1.573506917E1,-2.191349864E-3,-6.857451051E-3,6.393210497E-4,7.227404828E-3
1.574502517E1,2.817688975E-3,6.007959135E-3,-2.438110299E-3,7.069605785E-3
1.575498217E1,-2.190651605E-3,-1.874465263E-3,-3.001247533E-4,2.898732368E-3
1.576493917E1,-2.139546443E-3,-4.062775988E-3,8.381232619E-4,4.667575207E-3
1.577489517E1,4.599652020E-4,6.595412851E-4,-8.098408580E-4,1.141229560E-3
1.578485217E1,-4.694338422E-4,2.070558257E-3,-8.167871274E-4,2.274801275E-3
1.579480817E1,-1.927313861E-4,-1.172905439E-3,-1.430911943E-3,1.860204705E-3
1.580476517E1,-1.217318000E-3,-8.425173583E-4,1.248429064E-3,1.936562351E-3
1.581472217E1,-1.845441293E-4,-2.558230190E-4,1.371733379E-3,1.407534872E-3
1.582467817E1,-1.310416963E-3,1.118330751E-3,-6.388090551E-4,1.837371300E-3
1.583463517E1,-3.242485691E-4,1.127119176E-3,-1.141613815E-3,1.636709160E-3
1.584459117E1,-1.164812129E-4,1.930713886E-3,-3.380589187E-4,1.963544707E-3
1.585454817E1,-8.632314857E-4,3.217819845E-3,-1.624365803E-3,3.706493952E-3
1.586450517E1,-1.167722745E-3,1.742548542E-3,-1.152873039E-3,2.393568064E-3
1.587446117E1,8.842428215E-4,1.564915641E-3,2.092721406E-3,2.758682515E-3
1.588441817E1,6.116370205E-4,-8.630336961E-4,5.000331439E-4,1.170025705E-3
1.589437417E1,1.672374085E-3,-5.458511878E-4,-2.032366581E-3,2.687992284E-3
1.590433117E1,-5.376548506E-4,-1.667795121E-3,-1.933694817E-3,2.609557232E-3
1.591428817E1,-3.220789600E-3,-8.568626363E-4,-8.487231098E-4,3.439190332E-3
1.592424417E1,3.713262267E-4,9.720044909E-4,-4.553562030E-5,1.041513029E-3
1.593420117E1,2.234739950E-3,3.429658245E-4,9.827502072E-5,2.263039147E-3
1.594415717E1,-1.729854848E-3,2.277200343E-3,5.519818515E-4,2.912511487E-3
1.595411417E1,1.644515432E-4,-1.713546459E-3,8.326789830E-4,1.912234312E-3
1.596407017E1,-1.321748830E-3,-8.868919103E-4,5.214035045E-4,1.674950401E-3
1.597402717E1,-1.773953438E-3,-1.611271640E-3,9.421829600E-4,2.575037054E-3
1.598398417E1,1.324358396E-3,-9.275465854E-4,7.344610058E-4,1.775866211E-3
1.599394017E1,-1.277816249E-3,-1.904926728E-3,9.895919356E-4,2.498169811E-3
1.600389717E1,4.577754298E-4,1.855631359E-3,-9.245518595E-5,1.913497856E-3
1.601385317E1,-5.502309650E-4,-2.107152250E-3,2.019964391E-3,2.970370492E-3
1.602381017E1,-2.065560315E-3,-9.072236135E-4,4.265909083E-4,2.295990832E-3
1.603376717E1,-3.591019195E-3,-4.744600155E-4,2.141133882E-3,4.207729253E-3
1.604372317E1,-1.085796393E-3,1.106173964E-3,-1.040082425E-4,1.553509692E-3
1.605368017E1,9.909365326E-4,-1.294932095E-3,1.024106750E-3,1.925512654E-3
1.606363617E1,-1.009350875E-3,-1.761032967E-3,-6.582774222E-5,2.030851937E-3
1.607359317E1,-1.463153400E-3,-1.373310806E-5,1.143780304E-3,1.857212926E-3
1.608355017E1,1.254859497E-3,-1.194487093E-3,-1.600869466E-3,2.358867274E-3
1.609350617E1,-2.013904508E-3,1.139507280E-3,2.075091703E-3,3.108101315E-3
1.610346317E1,-2.104708925E-3,-4.946999834E-4,-1.992624719E-3,2.940251860E-3
1.611341917E1,1.164853922E-3,-4.374420387E-4,8.678766899E-4,1.517053112E-3
1.612337617E1,-1.154949423E-4,9.748870507E-4,-2.611927688E-3,2.790324370E-3
1.613333317E1,1.917828689E-3,-1.870434266E-3,7.307156920E-5,2.679912438E-3
1.614328917E1,6.983181229E-4,2.413499169E-3,3.568900283E-4,2.537714904E-3
1.615324617E1,6.114388816E-3,6.102776155E-3,1.899099443E-4,8.640931268E-3
1.616320217E1,1.787738525E-3,5.418111105E-4,-3.976444714E-4,1.909892521E-3
1.617315917E1,1.701718429E-3,2.458488103E-3,-1.205381472E-3,3.223810456E-3
1.618311617E1,2.880298067E-3,5.162461312E-4,1.049288549E-4,2.928077370E-3
1.619307217E1,8.720082697E-4,-1.969484147E-4,-7.137269713E-4,1.143937625E-3
1.620302917E1,2.711401554E-3,7.870589616E-5,-8.351407014E-4,2.838195377E-3
1.621298517E1,1.036006957E-3,1.143970294E-3,6.264019758E-4,1.665640383E-3
1.622294217E1,-1.204491593E-3,-3.002488520E-3,-2.352884971E-3,4.000225618E-3
1.623289817E1,1.569989603E-3,2.154989168E-3,3.619412892E-4,2.690696409E-3
1.624285517E1,2.740861382E-3,-1.108319615E-3,-8.374499157E-5,2.957652229E-3
1.625281217E1,2.707794774E-4,9.236722835E-4,2.485406352E-3,2.665283615E-3
1.626276817E1,6.957754958E-4,2.089658985E-3,1.955549931E-3,2.945327443E-3
1.627272517E1,6.158807082E-4,1.176461112E-3,-3.619329073E-4,1.376359409E-3
