"Time (s)","Linear Acceleration x (m/s^2)","Linear Acceleration y (m/s^2)","Linear Acceleration z (m/s^2)"
1.523420980E-1,-2.594662458E-2,5.599237978E-3,-9.886455536E-2
1.702343710E-1,-3.473419696E-2,-3.007575870E-3,-5.686759949E-2
1.881264000E-1,-5.139800906E-2,7.514510304E-3,-7.174777985E-2
2.060185510E-1,-4.247789830E-2,8.357640356E-3,-7.788944244E-2
2.239124720E-1,-3.626529872E-2,1.106183231E-2,-4.466819763E-2
2.418029140E-1,-3.828946501E-2,1.039898768E-2,-5.140304565E-2
2.596953700E-1,-3.678447008E-2,1.493357494E-2,-4.060935974E-2
2.775873990E-1,-3.636223823E-2,8.432924747E-3,-4.162788391E-2
2.954794270E-1,-4.215791821E-2,5.182515830E-3,-3.659915924E-2
3.133715780E-1,-3.786975890E-2,1.260982826E-2,-3.028964996E-2
3.312636680E-1,-3.674990684E-2,1.108975708E-2,-5.044937134E-2
3.491560630E-1,-3.926807642E-2,-5.430169404E-4,-4.524612427E-2
3.670481530E-1,-3.741344810E-2,4.054471850E-3,-6.729412079E-2
3.849413410E-1,-3.481994569E-2,1.304567233E-2,-7.135868073E-2
4.028327600E-1,-4.796533287E-2,2.763196826E-3,-6.363677979E-2
4.207247890E-1,-4.730174690E-2,7.085770369E-3,-8.492565155E-2
4.386168790E-1,-4.657368362E-2,6.347879767E-3,-7.911682129E-2
4.565066490E-1,-3.405164182E-2,4.440844059E-4,-8.343601227E-2
4.744011800E-1,-3.070196509E-2,2.680033445E-3,-6.950855255E-2
4.922933920E-1,-2.927576005E-2,-3.972910345E-3,-7.270622253E-2
5.101826740E-1,-2.874431759E-2,6.260924041E-3,-5.871677399E-2
5.280742760E-1,-2.561190724E-2,2.546127886E-3,-4.959201813E-2
5.459699060E-1,-1.959878206E-2,6.889738142E-4,-5.280208588E-2
5.638649260E-1,-2.080696821E-2,-3.339402378E-3,-3.484916687E-2
5.817426720E-1,-2.440832555E-2,4.466243088E-3,-4.366493225E-2
5.996464200E-1,-2.528815717E-2,7.554680109E-3,-3.079700470E-2
6.175385710E-1,-1.573453844E-2,6.798647344E-3,-3.619480133E-2
6.354309040E-1,-1.942680776E-2,1.568198204E-4,-2.299499512E-2
6.533230550E-1,-1.627732813E-2,4.196103662E-3,-4.336738586E-2
6.712150230E-1,-1.497606933E-2,4.054028541E-3,-4.624462128E-2
6.891077230E-1,-7.502764463E-3,-8.333567530E-3,-6.295585632E-2
7.069995080E-1,-1.109527051E-2,-3.674421459E-3,-7.858562469E-2
7.248939780E-1,-3.347828984E-3,-6.887428463E-3,-9.157657623E-2
7.427828320E-1,1.236706972E-3,-6.058871746E-3,-8.507728577E-2
7.606658900E-1,-5.272835493E-3,1.791164279E-3,-1.161575317E-1
7.785683560E-1,-4.323959351E-3,-6.341133267E-3,-9.861183167E-2
7.964631310E-1,-1.118502021E-2,1.155024767E-2,-7.084369659E-2
8.143414270E-1,-2.235689759E-2,1.045137644E-3,-7.972431183E-2
8.322412070E-1,-2.095960081E-2,4.149418324E-3,-6.905651093E-2
8.501372640E-1,-2.269737422E-2,9.527187794E-3,-3.869247437E-2
8.680314290E-1,-2.988019586E-2,3.241360188E-3,-2.225589752E-2
8.859213830E-1,-3.036449850E-2,3.233499825E-3,-1.279640198E-2
9.038134120E-1,-3.724019974E-2,4.679180682E-3,-1.572036743E-2
9.217058070E-1,-4.092535377E-2,6.388831884E-3,-9.971618652E-3
9.395978360E-1,-3.940085322E-2,-1.609750092E-3,-2.584552765E-2
9.574901700E-1,-3.191922605E-2,1.089315489E-2,-3.599071503E-2
9.753823210E-1,-2.723316848E-2,5.335535854E-3,-6.275081635E-2
9.932773400E-1,-3.209817410E-2,-3.383021802E-3,-7.056999207E-2
1.011155331E0,-2.324760705E-2,1.951374114E-3,-7.919311523E-2
1.029058834E0,-1.079407334E-2,4.291351885E-3,-9.533977509E-2
1.046950924E0,-1.791812479E-2,-1.400034875E-3,-1.019573212E-1
1.064847469E0,-1.776495576E-2,7.130578160E-5,-1.047544479E-1
1.082735409E0,1.663900912E-2,2.997885272E-2,-1.348571777E-1
1.100627377E0,2.748221159E-3,7.932808250E-3,-1.143512726E-1
1.118520321E0,-2.071267366E-2,-1.207288727E-2,-8.153057098E-2
1.136411862E0,-2.216719091E-2,-9.884037077E-3,-4.068183899E-2
1.154303951E0,-1.876284182E-2,1.457820088E-2,-6.349468231E-2
1.172196102E0,-2.237424254E-2,1.324167475E-2,-1.380538940E-2
1.190088619E0,-1.124615967E-2,-5.140826106E-3,-3.100204468E-2
1.207980465E0,-2.384748310E-2,2.699322999E-3,-2.279853821E-2
1.225872799E0,-2.289359272E-2,1.722853631E-3,-2.298831940E-2
1.243764889E0,-2.023091912E-2,4.633251578E-3,-3.728008270E-2
1.261658199E0,-2.613887191E-2,5.961839110E-3,-4.407501221E-2
1.279547482E0,-1.197281480E-2,-8.805707097E-3,-6.969738007E-2
1.297441403E0,7.019937038E-5,-4.172779620E-3,-7.680130005E-2
1.315322018E0,-6.060153246E-3,-1.086809114E-2,-9.110260010E-2
1.333225826E0,-1.081550121E-2,-7.259961218E-3,-1.142635345E-1
1.351117916E0,-1.057893038E-2,-7.153823972E-3,-1.034545898E-1
1.369010311E0,-1.280751824E-2,-1.851204783E-3,-9.759330750E-2
1.386902279E0,-2.262333035E-2,2.520147711E-3,-7.522773743E-2
1.404798580E0,-2.601321042E-2,2.184957266E-4,-6.793594360E-2
1.422686398E0,-3.392661363E-2,-1.510102302E-3,-5.537128448E-2
1.440578854E0,-3.764004260E-2,1.304894313E-2,-2.789402008E-2
1.458471432E0,-3.116244078E-2,1.220444962E-2,-2.853965759E-2
1.476363033E0,-3.538355231E-2,4.896286875E-3,-1.370429993E-2
1.494255367E0,-3.638556600E-2,1.407992467E-2,-9.494781494E-3
1.512147946E0,-3.461001813E-2,5.840927362E-3,-8.172035217E-3
1.530039608E0,-3.103592992E-2,6.099723279E-3,-1.097011566E-2
1.547931942E0,-2.995546162E-2,1.404911280E-3,-3.535556793E-2
1.565814083E0,-1.895210147E-2,2.366613597E-3,-5.344581604E-2
1.583716061E0,-1.214806736E-2,1.962468028E-3,-6.540012360E-2
1.601600155E0,-1.077038050E-2,-2.269309014E-3,-9.231090546E-2
1.619496029E0,-7.144182920E-3,-5.850497633E-3,-9.869003296E-2
1.637392819E0,-3.845691681E-3,-4.428334534E-3,-1.084394455E-1
1.655287594E0,-1.520620286E-2,-4.203751683E-3,-1.003246307E-1
1.673176998E0,-1.222442091E-2,-8.455570787E-3,-9.467315674E-2
1.691066219E0,-1.845940948E-2,1.244910061E-3,-7.598209381E-2
1.708961483E0,-1.729558408E-2,-7.078535855E-4,-6.223106384E-2
1.726853512E0,-2.336646616E-2,-4.018243402E-3,-4.299831390E-2
1.744745663E0,-2.298685908E-2,1.351721585E-3,-2.577304840E-2
1.762637814E0,-2.196988463E-2,7.155131549E-3,-1.155376434E-2
1.780532345E0,-2.994785458E-2,4.573833197E-3,-7.724761963E-3
1.798422115E0,-2.971073985E-2,9.408701211E-3,-1.099109650E-2
1.816314449E0,-2.811031044E-2,3.184236586E-3,-1.732349396E-2
1.834206600E0,-3.143458068E-2,9.240135550E-3,-2.612781525E-2
1.852102108E0,-3.016929328E-2,3.536932170E-3,-4.771137238E-2
1.869990963E0,-3.048869967E-2,-8.604303002E-5,-6.087779999E-2
1.887885983E0,-2.329316735E-2,4.315458238E-3,-8.138847351E-2
1.905775082E0,-2.019663155E-2,3.054425120E-3,-9.272575378E-2
1.923667477E0,-1.494117081E-2,-1.754011959E-3,-1.049289703E-1
1.941559506E0,-2.275750041E-2,-1.002497971E-3,-1.081047058E-1
1.959451717E0,-1.640604436E-2,-3.086451441E-3,-9.606266022E-2
1.977332760E0,-1.577413082E-2,6.122682244E-3,-8.153533936E-2
1.995238888E0,-3.230275959E-2,6.133105606E-3,-7.884025574E-2
2.013128292E0,-2.311176062E-2,7.679730654E-3,-4.493522644E-2
2.031020260E0,-2.710398287E-2,8.051231503E-3,-2.976894379E-2
2.048912838E0,-2.942480147E-2,4.654143006E-3,-2.355003357E-2
2.066804684E0,-2.488330007E-2,6.932973862E-3,-1.118755341E-2
2.084697018E0,-2.201205492E-2,1.245062798E-2,-7.202148438E-3
2.102589108E0,-2.732813358E-2,1.111298800E-2,-9.802818298E-3
2.120481197E0,-1.920853555E-2,1.815665513E-3,-2.807807922E-2
2.138370296E0,-2.284598351E-2,-7.760152221E-4,-4.120445251E-2
2.156265621E0,-2.901212126E-2,6.048921496E-3,-5.514431000E-2
2.174157711E0,-1.138362288E-2,5.236186087E-3,-7.730865479E-2
2.192049801E0,-6.484121084E-3,-1.116374880E-2,-9.308242798E-2
2.209942196E0,-4.795074463E-3,-1.073382050E-2,-1.048860550E-1
2.227834225E0,-3.553986549E-3,-5.276758224E-3,-1.048994064E-1
2.245726315E0,-7.784098387E-3,-1.421172172E-3,-1.073856354E-1
2.263618710E0,-1.992818713E-2,-9.714622051E-3,-8.229255676E-2
2.281510677E0,-1.703462005E-2,5.203641951E-3,-7.259464264E-2
2.299399898E0,-2.472229302E-2,4.391480237E-3,-6.060600281E-2
2.317286618E0,-2.479496598E-2,4.329696298E-3,-3.416347504E-2
2.335190060E0,-3.224677593E-2,7.301311940E-3,-2.866744995E-2
2.353079281E0,-2.824867517E-2,1.617950946E-2,-2.025127411E-2
2.370971798E0,-2.664974332E-2,1.207368821E-2,-1.078891754E-2
2.388863705E0,-3.053119034E-2,8.286915720E-3,-9.950637817E-3
2.406755856E0,-3.026542068E-2,5.634032190E-3,-1.233100891E-2
2.424651058E0,-2.440157533E-2,5.714610219E-3,-2.973842621E-2
2.442540279E0,-3.142428398E-2,-2.673268318E-5,-4.275512695E-2
2.460432430E0,-1.460947096E-2,-7.145624608E-3,-6.599712372E-2
2.478324764E0,-1.820978522E-2,-3.121443093E-3,-9.200572968E-2
2.496216732E0,-1.111261547E-2,-2.492085099E-3,-9.132099152E-2
2.514111874E0,-6.679266691E-3,-1.751229167E-3,-1.011266708E-1
2.532001278E0,-8.006080985E-3,-3.686815500E-3,-1.035289764E-1
2.549894955E0,-1.403379440E-2,-1.003608108E-3,-9.788417816E-2
2.567785641E0,-1.302395761E-2,-2.777732909E-3,-8.440494537E-2
2.585677487E0,-1.560841501E-2,2.666074783E-3,-6.879329681E-2
2.603573056E0,-1.819652319E-2,4.198882729E-3,-5.523490906E-2
2.621461910E0,-2.099249512E-2,9.848929942E-3,-2.920436859E-2
2.639351253E0,-2.927093208E-2,3.354385495E-3,-1.808547974E-2
2.657234799E0,-1.895390451E-2,4.224155098E-3,-4.522323608E-3
2.675141354E0,-2.522554994E-2,-1.083277166E-4,-6.130218506E-3
2.693030758E0,-2.046169341E-2,4.358753562E-3,-4.317283630E-3
2.710922604E0,-5.641628802E-2,2.067277953E-2,-1.407337189E-2
2.728818111E0,-6.172993779E-2,1.245777681E-2,-4.371452332E-2
2.746707089E0,-6.040534377E-2,1.757554710E-4,-6.069564819E-2
2.764599178E0,-4.005505145E-2,6.880726665E-3,-7.761287689E-2
2.782491451E0,-3.763349354E-2,4.444953054E-3,-9.696102142E-2
2.800383480E0,-6.510978192E-2,1.034945250E-2,-1.069087982E-1
2.818278805E0,-9.618997574E-2,9.961254895E-3,-8.916378021E-2
2.836167965E0,-8.435145020E-2,1.336425543E-2,-8.312416077E-2
2.854060543E0,-5.586721748E-2,6.825797260E-3,-1.083736420E-1
2.871952450E0,-5.856145918E-2,6.794020534E-3,-7.655143738E-2
2.889844540E0,-7.037332654E-2,1.465455443E-2,-6.464576721E-2
2.907736508E0,-8.598381281E-2,2.642917633E-2,-3.769111633E-2
2.925628842E0,-8.909061551E-2,1.843503490E-2,-2.605724335E-2
2.943520992E0,-7.731787860E-2,1.869642735E-2,-2.155303955E-3
2.961413143E0,-7.546456903E-2,1.642124727E-2,-2.507877350E-2
2.979305538E0,-4.889982939E-2,9.835276753E-3,-2.628326416E-3
2.997193356E0,-4.570668191E-2,1.432825997E-2,-9.044647217E-3
3.015088131E0,-4.426591098E-2,-2.899549901E-3,-3.253555298E-2
3.032981625E0,-3.105740249E-2,9.239517152E-3,-3.623580933E-2
3.050872616E0,-3.229427338E-2,-3.649301827E-3,-6.311321259E-2
3.068766354E0,-2.571577579E-2,1.104455441E-3,-8.070659637E-2
3.086658444E0,-2.755751461E-2,-6.960108876E-4,-9.440422058E-2
3.104550533E0,-1.789729297E-2,-9.431544691E-3,-1.140279770E-1
3.122440792E0,-6.334692240E-3,-9.630795568E-3,-1.051340103E-1
3.140334713E0,-3.528802097E-2,1.563811675E-2,-1.001338959E-1
3.158224178E0,-3.892316669E-2,3.430493176E-3,-9.391498566E-2
3.176119137E0,-5.916287750E-2,7.956575602E-3,-8.201122284E-2
3.194014035E0,-5.900883675E-2,8.895505220E-3,-5.626964569E-2
3.211891598E0,-1.252062619E-1,2.254408225E-2,-4.036331177E-2
3.229784176E0,-2.320557982E-1,5.526900291E-2,-6.741523743E-3
3.247676266E0,-3.774041533E-1,1.078264788E-1,2.879142761E-3
3.265582943E0,-4.837385118E-1,1.316315234E-1,1.612281799E-2
3.283472469E0,-5.839888453E-1,1.553144902E-1,-7.288932800E-3
3.301364437E0,-6.958799958E-1,1.843460649E-1,-2.224063873E-2
3.319256527E0,-7.624970675E-1,2.132559270E-1,-1.577758789E-2
3.337136959E0,-8.429112434E-1,2.386604249E-1,-6.047439575E-2
3.355039547E0,-9.744399786E-1,2.642424405E-1,-7.953643799E-2
3.372933102E0,-1.069922328E0,3.074019551E-1,-6.915473938E-2
3.390825192E0,-1.074756980E0,3.394281268E-1,-8.770561218E-2
3.408716549E0,-1.046098709E0,3.311487138E-1,-8.286094666E-2
3.426609615E0,-1.039665103E0,3.392022252E-1,-1.031684875E-1
3.444504635E0,-1.035197139E0,3.636881113E-1,-9.950828552E-2
3.462393795E0,-1.010288954E0,3.969581127E-1,-7.360839844E-2
3.480286129E0,-9.545114636E-1,3.864518106E-1,-5.548763275E-2
3.498175777E0,-8.858072758E-1,3.927315772E-1,-4.953765869E-2
3.516067440E0,-8.412950039E-1,3.981595039E-1,-2.100658417E-2
3.533965389E0,-8.295236826E-1,4.343277216E-1,-1.082420349E-3
3.551854733E0,-8.044737577E-1,4.508672357E-1,8.250236511E-3
3.569747128E0,-7.070952654E-1,4.644128680E-1,9.266853333E-3
3.587624569E0,-6.161052585E-1,4.406588972E-1,-1.204490662E-2
3.605531246E0,-5.168625116E-1,4.192279279E-1,-2.165412903E-2
3.623423397E0,-3.906378746E-1,4.219068885E-1,-3.333091736E-2
3.641315670E0,-3.160372674E-1,4.205561280E-1,-5.689620972E-2
3.659207821E0,-2.206639349E-1,3.958723545E-1,-7.112693787E-2
3.677102841E0,-9.427523613E-2,3.679610491E-1,-1.362037659E-1
3.694989315E0,-8.646340668E-2,3.740427792E-1,-1.385059357E-1
3.712884335E0,-1.723905057E-1,4.237232506E-1,-6.607627869E-2
3.730776424E0,-1.454140544E-1,4.281840920E-1,-1.012706757E-1
3.748668758E0,-9.222488105E-2,3.869886398E-1,-1.452102661E-1
3.766561092E0,-3.074698895E-2,3.800718188E-1,-8.928680420E-2
3.784455318E0,-1.306344569E-2,4.120605290E-1,-7.220745087E-2
3.802345028E0,-3.674798459E-2,4.108508825E-1,-8.501529694E-2
3.820237301E0,-3.043214232E-2,3.963808417E-1,-2.573680878E-2
3.838129696E0,-2.128122747E-2,4.133932889E-1,-1.237106323E-2
3.856021786E0,-7.647626102E-3,4.359275997E-1,-1.398849487E-2
3.873916500E0,-1.509293914E-3,4.200714529E-1,1.556682587E-2
3.891805904E0,-8.531823754E-3,4.180620313E-1,-2.125167847E-2
3.909698299E0,7.944126427E-2,4.112769961E-1,-2.599334717E-2
3.927590328E0,1.595315933E-1,3.799094558E-1,-5.655288696E-2
3.945482357E0,1.978372782E-1,3.527311683E-1,-7.668876648E-2
3.963371822E0,6.039042771E-2,3.989357948E-1,-1.436758041E-1
3.981266781E0,5.660390854E-2,3.919473886E-1,-1.768302917E-2
3.999158993E0,1.599323004E-1,3.651684523E-1,-1.291065216E-1
4.017054013E0,3.134357929E-1,3.127637208E-1,-1.797351837E-1
4.034941525E0,5.099616647E-1,2.787072361E-1,-6.622600555E-2
4.052832638E0,5.872166753E-1,2.357198894E-1,-1.001291275E-1
4.070727535E0,5.815101266E-1,1.947762668E-1,-8.862400055E-2
4.088619869E0,5.976311564E-1,1.814025640E-1,-5.540466309E-2
4.106511959E0,5.913190842E-1,1.892044991E-1,-4.045867920E-2
4.124404293E0,6.143748760E-1,1.682472229E-1,-7.662773132E-3
4.142296139E0,7.008253336E-1,8.845438063E-2,-9.855270386E-3
4.160188473E0,9.194355011E-1,1.970645040E-2,-3.703594208E-2
4.178080807E0,1.025228620E0,-2.848497778E-2,1.295528412E-1
4.195972653E0,1.028368115E0,-3.017240763E-2,-1.629257202E-2
4.213867978E0,1.004587770E0,-8.684296161E-2,1.101016998E-2
4.231757076E0,1.053442001E0,-1.483909190E-1,-3.578758240E-2
4.249649471E0,1.000073910E0,-1.436561048E-1,-9.129333496E-2
4.267541500E0,9.380477667E-1,-1.550163329E-1,-3.645420074E-2
4.285430721E0,8.737020493E-1,-1.617378891E-1,-7.704162598E-2
4.303325924E0,8.269565105E-1,-1.524305195E-1,-6.383132935E-2
4.321217953E0,7.684442997E-1,-1.501682103E-1,-3.411865234E-2
4.339110348E0,7.235342860E-1,-1.594728380E-1,-1.114997864E-1
4.357002194E0,6.645692587E-1,-1.491451412E-1,-6.238269806E-2
4.374896054E0,7.044250965E-1,-1.458404213E-1,-6.766414642E-2
4.392775143E0,8.626122475E-1,-1.818663776E-1,-4.185676575E-2
4.410678768E0,1.317911625E0,-3.084848225E-1,-1.391506195E-2
4.428571346E0,2.238306284E0,-5.379857421E-1,-1.147413254E-1
4.446445347E0,2.530836582E0,-7.721719146E-1,-4.109840393E-1
4.464355221E0,-7.505967617E-1,8.018139750E-2,-2.543630600E-1
4.482234310E0,-2.225385010E-1,1.254540980E-1,-1.082506180E-1
4.500136715E0,4.224859476E-1,3.565994650E-2,-2.131452560E-1
4.518031979E0,1.000139564E-1,-1.715854555E-1,-5.153656006E-3
4.535924008E0,-1.647386551E-1,-8.437408507E-2,-2.037887573E-1
4.553816158E0,-9.257895499E-2,4.216685146E-2,-3.703594208E-2
4.571708309E0,2.360939980E-3,1.978822798E-2,-1.500072479E-1
4.589602901E0,-7.740685344E-2,-3.504604846E-2,-3.618621826E-2
4.607492672E0,4.678083956E-2,-5.663351342E-2,-1.215801239E-1
4.625374020E0,-1.799784601E-2,-3.764196485E-2,-4.644393921E-3
4.643276852E0,-7.435324788E-2,5.473375320E-3,5.704879761E-3
4.661169186E0,4.746910930E-2,-4.727789760E-2,-4.755783081E-2
4.679061520E0,5.315247178E-2,-4.424887896E-2,-8.338546753E-2
4.696955380E0,-8.477851003E-2,-2.392808348E-2,-4.175090790E-2
4.714845455E0,1.958228648E-2,-8.911460638E-3,-9.112834930E-2
4.732726254E0,-1.652136445E-3,-6.986804307E-3,-8.059787750E-2
4.750630062E0,-3.349766135E-2,-4.985895753E-2,-5.357074738E-2
4.768511715E0,-7.093562186E-2,-1.767341793E-2,-5.088615417E-2
4.786414303E0,-1.433618367E-2,2.301178873E-3,-7.853317261E-2
4.804308102E0,-1.237674057E-2,-1.320978254E-2,-4.865837097E-2
4.822198422E0,-8.734653890E-2,-2.990873158E-2,-1.666927338E-2
4.840091000E0,-1.727464795E-2,-2.381054312E-2,-2.325248718E-2
4.857983151E0,-1.500646770E-2,-1.101682335E-2,-3.957557678E-2
4.875875240E0,-5.587510765E-2,-1.450663060E-2,-3.030395508E-2
4.893767025E0,-9.065225720E-3,-1.901695132E-2,-3.148841858E-2
4.911659420E0,9.235158563E-3,-3.477703780E-2,-2.386569977E-2
4.929551693E0,-3.417029977E-2,-2.129664272E-2,-2.410125732E-2
4.947443844E0,-2.321256697E-2,-2.994696051E-2,-5.655288696E-3
4.965335934E0,-1.807923615E-2,-4.118777066E-2,-1.627445221E-2
4.983228024E0,-5.539734662E-2,-1.527676731E-2,-3.027439117E-2
5.001117244E0,-1.201657951E-2,-9.284831583E-3,-7.064914703E-2
5.019012508E0,-6.841704249E-3,-3.802446276E-2,-6.205368042E-2
5.036903682E0,-4.961396754E-2,-5.715347826E-3,-5.451583862E-2
5.054796627E0,-2.244333923E-2,7.295086980E-4,-5.312728882E-2
5.072688900E0,-1.540356874E-2,-3.562381119E-2,-4.872989655E-2
5.090581051E0,-5.007798225E-2,-4.138506949E-3,-3.199958801E-2
5.108464596E0,-2.596220374E-2,-2.639167011E-3,-4.166316986E-2
5.126365292E0,-2.022548020E-2,-2.887196094E-2,-4.095745087E-2
5.144257565E0,-6.911793351E-2,-2.324404567E-2,-1.154136658E-2
5.162149715E0,-3.062045574E-2,-1.379875839E-2,-2.089977264E-2
5.180041683E0,-1.370213926E-2,-3.988604993E-2,-3.056907654E-2
5.197922115E0,-3.764244914E-2,-2.386441082E-2,-1.923656464E-2
5.215826656E0,-7.320910692E-3,-2.195839584E-2,-3.297519684E-2
5.233718258E0,-8.417338133E-3,-3.180621564E-2,-6.167221069E-2
5.251610287E0,-2.893140912E-2,-1.915322244E-2,-7.070255280E-2
5.269485043E0,7.742553949E-3,-2.239725739E-2,-8.234596252E-2
5.287395016E0,-1.793640852E-2,-2.565862983E-2,-7.439899445E-2
5.305285458E0,-2.438317239E-2,-1.666954905E-2,-8.323383331E-2
5.323179196E0,-9.681403637E-3,-1.473060250E-2,-8.863544464E-2
5.341071285E0,-4.830385745E-2,-3.239803016E-3,-7.208156586E-2
5.358963619E0,-2.433165908E-2,-1.240470260E-2,-5.167007446E-2
5.376855709E0,-3.690042347E-2,-2.675512433E-2,-4.877281189E-2
5.394747799E0,-5.299837887E-2,-1.343875378E-2,-3.381824493E-2
5.412640194E0,-3.050784767E-2,-2.464268357E-2,-3.546905518E-2
5.430532223E0,-3.348876536E-2,-3.114097565E-2,-3.516864777E-2
5.448412594E0,-4.035292566E-2,-1.084847748E-2,-3.686428070E-2
5.466313534E0,-1.134991646E-2,-2.599208057E-2,-3.842926025E-2
5.484208492E0,-2.139315009E-2,-2.719876170E-2,-4.661178589E-2
5.502089413E0,-1.783917844E-2,-1.959840953E-2,-5.105304718E-2
5.519993404E0,2.781808376E-3,-1.575207710E-2,-5.903530121E-2
5.537885067E0,-1.975564659E-2,-3.835172206E-2,-7.030105591E-2
5.555777096E0,-1.334309578E-2,-1.441781968E-2,-6.664752960E-2
5.573669186E0,-4.703119397E-3,-1.443047076E-2,-8.561038971E-2
5.591561581E0,-2.829687297E-2,-1.777249575E-2,-8.250617981E-2
5.609456966E0,-2.137005329E-2,-7.901296020E-3,-7.470989227E-2
5.627345394E0,-2.431644499E-2,-1.184338331E-2,-7.176208496E-2
5.645240840E0,-2.598656714E-2,-7.970556617E-3,-5.734920502E-2
5.663130123E0,-3.554943204E-2,-1.307816803E-2,-6.543159485E-2
5.681021725E0,-3.635174036E-2,-1.662535220E-2,-4.971981049E-2
5.698914669E0,-2.850723267E-2,-1.176135242E-2,-4.499912262E-2
5.716806637E0,-3.694485128E-2,-1.721556485E-2,-2.986240387E-2
5.734698788E0,-3.140468895E-2,-1.442797482E-2,-3.083038330E-2
5.752590878E0,-1.049248874E-2,-2.354440093E-2,-2.780628204E-2
5.770471432E0,-2.095998824E-2,-2.454598248E-2,-3.409671783E-2
5.788371090E0,-1.896890998E-2,-1.753535867E-2,-4.489040375E-2
5.806264522E0,-5.992680788E-3,-2.719745785E-2,-4.913425446E-2
5.824162594E0,-1.382143795E-2,-2.100649476E-2,-5.939960480E-2
5.842051571E0,-1.201918721E-2,-1.732203364E-2,-6.566143036E-2
5.859943844E0,-1.418650150E-3,-2.392851561E-2,-7.851505280E-2
5.877836178E0,-7.983237505E-3,-1.477183402E-2,-8.370685577E-2
5.895728573E0,-1.033131778E-2,-1.541482657E-2,-7.152748108E-2
5.913617550E0,-2.626012266E-2,-1.043922454E-2,-8.094787598E-2
5.931511959E0,-2.795486152E-2,-1.570189744E-2,-6.577110291E-2
5.949404781E0,-3.019887209E-2,-2.142690122E-2,-5.746269226E-2
5.967285946E0,-3.019776940E-2,-1.285048574E-2,-4.624176025E-2
5.985188961E0,-4.363845289E-2,-1.765740663E-2,-3.875064850E-2
6.003081661E0,-4.382561147E-2,-3.177329153E-2,-2.878761292E-2
6.020973446E0,-3.647221625E-2,-1.270357519E-2,-3.584194183E-2
6.038865658E0,-2.300660312E-2,-2.333100885E-2,-3.080368042E-2
6.056757809E0,-2.423191071E-2,-3.033728898E-2,-3.461360931E-2
6.074649899E0,-1.199619472E-2,-2.203658223E-2,-4.137420654E-2
6.092541988E0,-7.946163416E-3,-2.406565845E-2,-5.594444275E-2
6.110434139E0,-5.322456360E-3,-1.921726763E-2,-5.668067932E-2
6.128326474E0,-6.481513381E-3,-1.755141467E-2,-7.706451416E-2
6.146218502E0,-1.132266223E-2,-1.228098571E-2,-7.115268707E-2
6.164110653E0,-6.846994162E-3,-1.860906184E-2,-7.702636719E-2
6.182002682E0,-1.450388134E-2,-1.168922335E-2,-7.737159729E-2
6.199894772E0,-1.630868018E-2,-1.323760301E-2,-7.123947144E-2
6.217787167E0,-2.515263855E-2,-1.662913710E-2,-6.987380981E-2
6.235678951E0,-3.256399930E-2,-1.920285076E-2,-5.056190491E-2
6.253571285E0,-2.935539186E-2,-7.819712162E-3,-5.529785156E-2
6.271463375E0,-3.160728514E-2,-1.862198859E-2,-4.544448853E-2
6.289355831E0,-3.543031216E-2,-1.842660457E-2,-2.380371094E-2
6.307233516E0,-3.272683918E-2,-1.923342049E-2,-2.938461304E-2
6.325136898E0,-2.802744508E-2,-2.607766539E-2,-3.860950470E-2
6.343029293E0,-2.037410438E-2,-2.188326418E-2,-2.645015717E-2
6.360924008E0,-1.388603449E-2,-2.130331099E-2,-4.031562805E-2
6.378816708E0,-9.274780750E-3,-1.937334239E-2,-4.626083374E-2
6.396708492E0,-7.014930248E-3,-2.163240314E-2,-5.929088593E-2
6.414600582E0,-7.089346647E-3,-2.108437568E-2,-6.102180481E-2
6.432493893E0,-8.467003703E-3,-1.158186793E-2,-7.832336426E-2
6.450385311E0,-9.652584791E-3,-2.120965719E-2,-8.457565308E-2
6.468266415E0,-1.586864889E-2,-1.801761240E-2,-8.768844604E-2
6.486157650E0,-1.485902071E-2,-1.862876862E-2,-8.259010315E-2
6.504050350E0,-1.791264117E-2,-1.610440761E-2,-6.888866425E-2
6.521956478E0,-2.325326204E-2,-1.641199738E-2,-6.242656708E-2
6.539845577E0,-2.740480006E-2,-1.393716037E-2,-5.854225159E-2
6.557737789E0,-3.139758110E-2,-1.519191265E-2,-3.897094727E-2
6.575630062E0,-3.150634468E-2,-1.897094399E-2,-3.113651276E-2
6.593522213E0,-2.367003262E-2,-2.373952419E-2,-3.416061401E-2
6.611414303E0,-3.010492027E-2,-2.587864548E-2,-4.373550415E-2
6.629306698E0,-1.870913804E-2,-2.840204537E-2,-3.642845154E-2
6.647192928E0,-2.606980503E-2,-2.359297872E-2,-4.226684570E-2
6.665088253E0,-1.711189747E-2,-2.672486752E-2,-4.586219788E-2
6.682982662E0,-1.705886424E-2,-2.017241716E-2,-6.011867523E-2
6.700874935E0,-1.426553726E-2,-2.016357332E-2,-5.135154724E-2
6.718764339E0,-7.480561733E-3,-1.601977646E-2,-7.201480865E-2
6.736659420E0,-9.120836854E-3,-2.427635342E-2,-7.763671875E-2
6.754551571E0,-1.016393304E-2,-1.680040359E-2,-8.557033539E-2
6.772443600E0,-1.589938998E-2,-1.644786447E-2,-7.856273651E-2
6.790335934E0,-2.438768744E-2,-1.675355434E-2,-7.944965363E-2
6.808213680E0,-2.864533663E-2,-1.642930508E-2,-6.722450256E-2
6.826109799E0,-3.001168370E-2,-1.468511671E-2,-6.137752533E-2
6.844015071E0,-3.392568976E-2,-1.486173272E-2,-4.864788055E-2
6.861904293E0,-3.488519043E-2,-1.385316253E-2,-4.916763306E-2
6.879796627E0,-3.101791441E-2,-2.122436464E-2,-4.220676422E-2
6.897688961E0,-2.329780161E-2,-2.195975184E-2,-2.762126923E-2
6.915580746E0,-2.957433462E-2,-2.721217275E-2,-2.886486053E-2
6.933472897E0,-2.606461942E-2,-1.938504726E-2,-3.742218018E-2
6.951365170E0,-1.696920395E-2,-2.428059280E-2,-4.285621643E-2
6.969257504E0,-1.323711872E-2,-2.188350260E-2,-5.122661591E-2
6.987138180E0,-1.863405108E-2,-2.901416272E-2,-6.140804291E-2
7.005039119E0,-8.745282888E-3,-1.645016670E-2,-7.087898254E-2
7.022933529E0,-6.809219718E-3,-2.231009305E-2,-7.645225525E-2
7.040825619E0,-1.160962880E-2,-1.082172245E-2,-7.239055634E-2
7.058717953E0,-1.072509587E-2,-2.135545760E-2,-7.996940613E-2
7.076610165E0,-2.008967102E-2,-1.626107097E-2,-6.897163391E-2
7.094502194E0,-2.639000118E-2,-1.741696149E-2,-6.626415253E-2
7.112394222E0,-2.963289618E-2,-1.081342250E-2,-5.879974365E-2
7.130286923E0,-2.695189416E-2,-1.045683026E-2,-4.709053040E-2
7.148183284E0,-3.447362036E-2,-1.167433709E-2,-3.737545013E-2
7.166066890E0,-3.519643098E-2,-1.507807523E-2,-3.642368317E-2
7.183964535E0,-3.478160501E-2,-2.019436657E-2,-3.670597076E-2
7.201855221E0,-2.751076221E-2,-2.402555943E-2,-3.254985809E-2
7.219750301E0,-1.514418423E-2,-1.938454062E-2,-3.335666656E-2
7.237639645E0,-1.547370851E-2,-1.793769002E-2,-3.174781799E-2
7.255531674E0,-1.268227398E-2,-2.079202235E-2,-5.599117279E-2
7.273423641E0,-1.435439289E-2,-1.981838048E-2,-6.004905701E-2
7.291315914E0,-1.594357193E-2,-2.244330198E-2,-6.951618195E-2
7.309194149E0,-5.880281329E-3,-1.813796908E-2,-7.469081879E-2
7.327097225E0,-3.692045808E-3,-1.490233094E-2,-8.904457092E-2
7.344989498E0,-1.249618828E-2,-1.020169258E-2,-8.257770538E-2
7.362884457E0,-2.258150280E-2,-9.439259768E-3,-7.957267761E-2
7.380776669E0,-2.008919418E-2,-1.015041769E-2,-7.072067261E-2
7.398668942E0,-2.769508958E-2,-1.414368302E-2,-5.999851227E-2
7.416560970E0,-2.913776040E-2,-1.542203873E-2,-5.550956726E-2
7.434453121E0,-3.092588484E-2,-1.325555891E-2,-4.705238342E-2
7.452345272E0,-3.148902953E-2,-1.445512474E-2,-4.186916351E-2
7.470237606E0,-3.333897889E-2,-2.308535576E-2,-3.402423859E-2
7.488129635E0,-2.741225064E-2,-1.260700077E-2,-3.414726257E-2
7.506020565E0,-2.247212827E-2,-1.357179135E-2,-3.230094910E-2
7.523916439E0,-1.766599715E-2,-2.165827155E-2,-3.384971619E-2
7.541805965E0,-1.289112866E-2,-2.036277205E-2,-4.264259338E-2
7.559698055E0,-2.547398210E-3,-1.644940674E-2,-4.749393463E-2
7.577590389E0,-1.072217524E-2,-2.314845473E-2,-5.403709412E-2
7.595482479E0,-9.250268340E-3,-9.593673050E-3,-5.921649933E-2
7.613374264E0,-1.024408638E-2,-9.759470820E-3,-7.553195953E-2
7.631266598E0,-1.074561477E-2,-4.836067557E-3,-7.632637024E-2
7.649161861E0,-1.390373707E-2,-1.235730946E-2,-9.122943878E-2
7.667051083E0,-2.113597095E-2,-9.435385466E-3,-8.165645599E-2
7.684941281E0,-2.594131231E-2,-1.558836550E-2,-5.995082855E-2
7.702835262E0,-2.728138864E-2,-8.307799697E-3,-5.438137054E-2
7.720727291E0,-2.818912268E-2,-9.537532926E-3,-5.481433868E-2
7.738616695E0,-3.046199679E-2,-1.177098602E-2,-3.934383392E-2
7.756511776E0,-2.501785755E-2,-1.362025738E-2,-3.223991394E-2
7.774403805E0,-2.661941946E-2,-1.957915723E-2,-3.174400330E-2
7.792295956E0,-2.975499630E-2,-1.398830861E-2,-3.382873535E-2
7.810176510E0,-2.041904628E-2,-1.342882216E-2,-3.111171722E-2
7.828079525E0,-1.275566220E-2,-2.106858790E-2,-3.778743744E-2
7.845972347E0,-1.437531412E-2,-2.032974362E-2,-5.711936951E-2
7.863867489E0,-1.054503024E-2,-1.980086416E-2,-6.283855438E-2
7.881744869E0,-6.666362286E-3,-2.300547063E-2,-7.012462616E-2
7.899648861E0,-2.647936344E-3,-2.017652243E-2,-7.910156250E-2
7.917544979E0,-4.832595587E-4,-1.417042315E-2,-7.920837402E-2
7.935433163E0,-6.510391831E-3,-1.376602054E-2,-7.296085358E-2
7.953325192E0,-1.533447206E-2,-6.526552141E-3,-7.037258148E-2
7.971217281E0,-1.827813685E-2,-1.659810543E-2,-6.840896606E-2
7.989109615E0,-2.586159110E-2,-1.190517843E-2,-5.590820312E-2
8.007004574E0,-2.426470816E-2,-1.244479418E-2,-5.664825439E-2
8.024898434E0,-3.212127090E-2,-8.644774556E-3,-3.321552277E-2
8.042785824E0,-3.084028512E-2,-1.609274745E-2,-3.515720367E-2
8.060666256E0,-2.023519576E-2,-2.033749223E-2,-3.024005890E-2
8.078570370E0,-1.910784841E-2,-2.053096890E-2,-3.015041351E-2
8.096462399E0,-2.000103891E-2,-2.241383493E-2,-3.215312958E-2
8.114357417E0,-1.740443707E-2,-2.297896892E-2,-3.699779510E-2
8.132246578E0,-1.048092544E-2,-2.727594227E-2,-4.161262512E-2
8.150138851E0,-1.243978739E-3,-2.825840563E-2,-5.909156799E-2
8.168035946E0,-1.338824630E-3,-2.074428648E-2,-6.045341492E-2
8.185923031E0,-1.970350742E-3,-1.342069358E-2,-7.061004639E-2
8.203815182E0,2.706721425E-3,-8.773885667E-3,-7.812118530E-2
8.221707272E0,-7.154792547E-3,-1.195202023E-2,-8.453750610E-2
8.239599301E0,-1.354226470E-2,-5.466036499E-3,-7.749271393E-2
8.257490780E0,-7.104352117E-3,-6.389930844E-3,-7.137775421E-2
8.275379940E0,-1.837731898E-2,-2.041883022E-2,-6.354904175E-2
8.293275875E0,-2.488349378E-2,-9.846299887E-3,-5.720329285E-2
8.311168453E0,-2.378202975E-2,-1.211766154E-2,-5.626678467E-2
8.329060421E0,-2.473601699E-2,-6.202384830E-3,-4.139518738E-2
8.346949276E0,-2.839346230E-2,-2.115625888E-2,-3.477478027E-2
8.364847958E0,-2.127608657E-2,-2.040945739E-2,-3.729534149E-2
8.382736569E0,-2.385073900E-2,-1.886081696E-2,-2.696418762E-2
8.400628597E0,-1.637855172E-2,-1.736729592E-2,-4.363346100E-2
8.418520992E0,-1.396085322E-2,-1.898245513E-2,-4.606628418E-2
8.436413143E0,-1.788780093E-3,-1.306210458E-2,-4.870033264E-2
8.454308834E0,5.745142698E-4,-1.597874612E-2,-6.809711456E-2
8.472197262E0,-2.228319645E-4,-1.091853529E-2,-7.609272003E-2
8.490089596E0,-3.408581018E-3,-1.119148731E-2,-7.633686066E-2
8.507981381E0,-6.094440818E-3,-1.908900589E-2,-7.874965668E-2
8.525873470E0,-1.027658582E-2,-1.049556583E-2,-7.777976990E-2
8.543765926E0,-9.779736400E-3,-2.959921956E-3,-8.018493652E-2
8.561658871E0,-1.773476601E-2,-1.310444623E-2,-7.321357727E-2
8.579551571E0,-2.374273539E-2,-7.117822766E-3,-6.046009064E-2
8.597442135E0,-1.999001205E-2,-1.306358725E-2,-5.260467529E-2
8.615334164E0,-3.053642809E-2,-1.314874738E-2,-3.701114655E-2
8.633226254E0,-3.246611357E-2,-1.493034512E-2,-4.004287720E-2
8.651118710E0,-2.354295552E-2,-1.407165825E-2,-2.999114990E-2
8.669010738E0,-2.518017590E-2,-1.650791615E-2,-2.984428406E-2
8.686903317E0,-1.697844267E-2,-9.160019457E-3,-3.025436401E-2
8.704794918E0,-6.861388683E-3,-2.092185616E-2,-3.612422943E-2
8.722689938E0,-1.071453094E-2,-1.823606342E-2,-4.511928558E-2
8.740579403E0,-9.933635592E-3,-1.928965002E-2,-5.546188354E-2
8.758470577E0,-1.465708017E-3,-1.376101375E-2,-6.017494202E-2
8.776363522E0,-9.720921516E-4,-2.371762693E-2,-7.620143890E-2
8.794255612E0,-5.049943924E-3,-1.627437025E-2,-7.387447357E-2
8.812148190E0,8.973181248E-4,-1.180925965E-2,-7.444000244E-2
8.830040096E0,-1.776844263E-2,-1.039545983E-2,-8.129215240E-2
8.847933224E0,-1.649177074E-2,-5.763843656E-3,-6.984615326E-2
8.865827145E0,-2.126435935E-2,-1.877981424E-2,-6.302070618E-2
8.883716305E0,-1.880185306E-2,-9.531863034E-3,-5.588340759E-2
8.901600094E0,-2.335910499E-2,-1.607602835E-2,-4.654502869E-2
8.919496212E0,-2.756945789E-2,-1.381314546E-2,-4.106903076E-2
8.937392880E0,-2.395609021E-2,-1.900938898E-2,-3.398895264E-2
8.955284664E0,-2.168017626E-2,-2.562908828E-2,-2.791500092E-2
8.973177120E0,-1.667159796E-2,-2.132778615E-2,-3.630924225E-2
8.991069149E0,-1.549419761E-2,-1.838611066E-2,-4.797077179E-2
9.008961239E0,-1.706509292E-2,-2.426566929E-2,-4.443264008E-2
9.026853329E0,-8.364245296E-3,-1.789005846E-2,-5.930233002E-2
9.044746945E0,2.519488335E-3,-1.128318161E-2,-5.985450745E-2
9.062637692E0,-2.154558897E-4,-1.318199933E-2,-6.686115265E-2
9.080529842E0,-4.828006029E-3,-1.736661047E-2,-7.468032837E-2
9.098422969E0,-1.162829995E-2,-2.569527924E-2,-7.522201538E-2
9.116297633E0,-1.166909933E-2,-9.818069637E-3,-7.542610168E-2
9.134206051E0,-4.721626639E-3,-8.110299706E-3,-7.486343384E-2
9.152096676E0,-1.856131852E-2,-8.970156312E-3,-6.506156921E-2
9.169987545E0,-2.356867492E-2,-1.667131484E-2,-4.902172089E-2
9.187882809E0,-1.879183948E-2,-1.013594866E-2,-5.044364929E-2
9.205774593E0,-2.490456402E-2,-1.860898733E-2,-4.909610748E-2
9.223666744E0,-2.808562666E-2,-1.460213959E-2,-3.067016602E-2
9.241559078E0,-1.781651378E-2,-1.977284998E-2,-2.697277069E-2
9.259451168E0,-1.260691881E-2,-1.004788280E-2,-2.219200134E-2
9.277332028E0,-1.764203608E-2,-2.106721699E-2,-4.060459137E-2
9.295238522E0,-8.915618062E-3,-1.878198236E-2,-4.345893860E-2
9.313130368E0,-1.927688718E-3,-2.044577897E-2,-5.220222473E-2
9.331019589E0,3.803566098E-3,-1.839324832E-2,-5.609130859E-2
9.348912106E0,2.241760492E-3,-7.322646677E-3,-7.254219055E-2
9.366800960E0,-2.672389150E-3,-1.563874632E-2,-7.732582092E-2
9.384696285E0,-7.479459047E-3,-1.179720461E-2,-7.717323303E-2
9.402588192E0,-7.631286979E-3,-1.125907153E-2,-8.327674866E-2
9.420480221E0,-1.337669790E-2,-1.409578323E-2,-7.536602020E-2
9.438371823E0,-1.699186862E-2,-1.019783318E-3,-6.795787811E-2
9.456264889E0,-1.337894797E-2,-4.721589386E-3,-5.941200256E-2
9.474156735E0,-2.397277951E-2,-1.683044434E-2,-4.091739655E-2
9.492048824E0,-2.160818875E-2,-1.115956157E-2,-3.815555573E-2
9.509941158E0,-2.912112325E-2,-1.211748272E-2,-3.580760956E-2
9.527833248E0,-1.942279935E-2,-1.728314906E-2,-3.101539612E-2
9.545725094E0,-2.782084048E-2,-2.000450343E-2,-3.044795990E-2
9.563617184E0,-1.527643204E-2,-2.092115581E-2,-3.354454041E-2
9.581509335E0,-9.280338883E-3,-1.743356138E-2,-4.243469238E-2
9.599398678E0,-5.856141448E-3,-1.437247545E-2,-4.021644592E-2
9.617282711E0,-2.875834703E-3,-1.498851180E-2,-5.733013153E-2
9.635188778E0,-3.592848778E-3,-1.614081115E-2,-6.346225739E-2
9.653077877E0,2.407655120E-3,-8.719056845E-3,-7.336807251E-2
9.670972897E0,-2.949371934E-3,-1.044709980E-2,-7.323837280E-2
9.688862301E0,-1.680433750E-3,-6.697416306E-3,-7.616996765E-2
9.706754330E0,-3.779232502E-3,-1.248549670E-2,-7.020282745E-2
9.724634822E0,-9.746059775E-3,-6.102852523E-3,-7.649517059E-2
9.742527401E0,-1.811961830E-2,-9.296998382E-3,-5.903434753E-2
9.760419674E0,-2.153158188E-2,-1.478891075E-2,-4.922771454E-2
9.778322994E0,-1.752397418E-2,-9.744577110E-3,-4.210186005E-2
9.796218075E0,-2.291397750E-2,-6.697095931E-3,-4.024028778E-2
9.814110043E0,-2.625860274E-2,-1.619289815E-2,-3.195953369E-2
9.831999264E0,-1.727373898E-2,-2.077903599E-2,-3.952217102E-2
9.849891720E0,-2.711738646E-2,-1.531544328E-2,-2.872467041E-2
9.867783688E0,-1.727391779E-2,-1.427981257E-2,-3.767108917E-2
9.885675411E0,-1.186892390E-3,-1.476214826E-2,-4.623126984E-2
9.903567928E0,-9.591162205E-3,-1.391660422E-2,-5.689239502E-2
9.921459957E0,1.553669572E-3,-2.027440071E-2,-5.577278137E-2
9.939348018E0,-1.755505800E-4,-1.543295383E-2,-7.597541809E-2
9.957232418E0,-3.189980984E-3,-8.963726461E-3,-8.026313782E-2
9.975139400E0,-1.460805535E-3,-4.679985344E-3,-7.852935791E-2
9.993025387E0,-8.976206183E-3,-6.270863116E-3,-7.956790924E-2
1.001092047E1,-9.997472167E-3,-1.345083117E-2,-7.292175293E-2
1.002881268E1,-1.336181164E-2,-2.769477665E-3,-7.158088684E-2
1.004670916E1,-2.738245577E-2,-7.037349045E-3,-5.159282684E-2
1.006459692E1,-1.840199530E-2,-1.721321791E-2,-4.540443420E-2
1.008248907E1,-2.357421815E-2,-1.847453415E-2,-5.316734314E-2
1.010038104E1,-2.870413661E-2,-1.837006211E-2,-3.763294220E-2
1.011827057E1,-1.961159706E-2,-1.016135514E-2,-2.895450592E-2
1.013616546E1,-2.019655704E-2,-1.793012023E-2,-2.803325653E-2
1.015405749E1,-1.446221769E-2,-1.663382351E-2,-3.182601929E-2
1.017194976E1,-9.677141905E-3,-1.593916118E-2,-5.080318451E-2
1.018983111E1,-2.408966422E-3,-1.844070107E-2,-5.474281311E-2
1.020773413E1,4.276826978E-3,-1.374562830E-2,-6.157875061E-2
1.022562646E1,-1.576960087E-3,-1.921618730E-2,-7.170677185E-2
1.024351831E1,-4.916444421E-3,-1.127705723E-2,-6.719493866E-2
1.026141034E1,1.256033778E-3,-9.686879814E-3,-6.367778778E-2
1.027930255E1,-5.137234926E-3,-1.019383967E-2,-7.072067261E-2
1.029719336E1,-1.715077460E-2,-1.292397082E-2,-7.150268555E-2
1.031508831E1,-1.608957350E-2,-1.022022963E-2,-6.586837769E-2
1.033297900E1,-1.964981854E-2,-9.621389210E-3,-5.985069275E-2
1.035087091E1,-2.286714315E-2,-1.108964533E-2,-4.674434662E-2
1.036876324E1,-2.123726904E-2,-1.534091681E-2,-4.900741577E-2
1.038665527E1,-3.097710758E-2,-7.124066353E-3,-3.580665588E-2
1.040454736E1,-2.440927178E-2,-2.106890827E-2,-2.912330627E-2
1.042243945E1,-2.539472282E-2,-1.426969469E-2,-2.830791473E-2
1.044033154E1,-1.781922579E-2,-9.503990412E-3,-3.169631958E-2
1.045822393E1,-1.341491938E-2,-1.905936003E-2,-3.857898712E-2
1.047611303E1,-8.106037974E-3,-8.914604783E-3,-4.379272461E-2
1.049399945E1,-5.460843444E-3,-1.937478036E-2,-4.886913300E-2
1.051190027E1,-8.639842272E-3,-1.295956969E-2,-5.668354034E-2
1.052979254E1,4.336446524E-3,-6.252750754E-3,-6.723880768E-2
1.054768457E1,-3.148779273E-3,-1.341125369E-2,-8.117294312E-2
1.056557366E1,2.855509520E-4,-3.984570503E-3,-8.048248291E-2
1.058346875E1,-1.383095980E-2,-9.705483913E-3,-7.889938354E-2
1.060136084E1,-9.210765362E-3,-8.759506047E-3,-6.975841522E-2
1.061925317E1,-1.596133411E-2,-6.389096379E-4,-6.804752350E-2
1.063713604E1,-2.229131758E-2,-6.714716554E-3,-4.601860046E-2
1.065502319E1,-2.028797567E-2,-1.532289386E-2,-3.781604767E-2
1.067292914E1,-2.249136567E-2,-1.011677831E-2,-4.091644287E-2
1.069081860E1,-2.551708370E-2,-1.066073775E-2,-3.034591675E-2
1.070871368E1,-3.251355141E-2,-1.184079051E-2,-2.292919159E-2
1.072660565E1,-1.405146718E-2,-1.834470034E-2,-2.924919128E-2
1.074449780E1,-1.084661484E-2,-1.792781800E-2,-3.554344177E-2
1.076238989E1,-1.020006835E-2,-1.176377386E-2,-3.520870209E-2
1.078028198E1,9.939372540E-4,-2.137316763E-2,-4.830646515E-2
1.079817431E1,-2.345591784E-4,-1.306558400E-2,-6.052303314E-2
1.081606634E1,3.008037806E-3,-1.003265381E-2,-7.361125946E-2
1.083396142E1,-2.299189568E-3,-9.017936885E-3,-7.155036926E-2
1.085185052E1,-8.133351803E-3,-8.162781596E-3,-7.581233978E-2
1.086974292E1,-2.475261688E-3,-1.330125332E-2,-7.716846466E-2
1.088762365E1,-7.942691445E-3,-9.954638779E-3,-7.310867310E-2
1.090552704E1,-1.755310595E-2,-1.525141299E-3,-7.120990753E-2
1.092341900E1,-1.357841492E-2,-1.084154844E-2,-6.516170502E-2
1.094131122E1,-2.003723383E-2,-9.934112430E-3,-6.102180481E-2
1.095920361E1,-2.187024057E-2,-7.608264685E-3,-4.152584076E-2
1.097709552E1,-2.211213112E-2,-9.398356080E-3,-4.405879974E-2
1.099498724E1,-2.320364118E-2,-1.790831983E-2,-2.681922913E-2
1.101287988E1,-1.705798507E-2,-1.318337768E-2,-2.961826324E-2
1.103077197E1,-1.443138719E-2,-1.530399173E-2,-2.760314941E-2
1.104866400E1,-7.331773639E-3,-1.347666979E-2,-4.736995697E-2
1.106655627E1,-4.577755928E-3,-1.276498288E-2,-4.958534241E-2
1.108444824E1,-7.692873478E-4,-8.723884821E-3,-6.000423431E-2
1.110234033E1,-4.083082080E-3,-1.452901959E-2,-7.453632355E-2
1.112023230E1,-2.249047160E-3,-7.127806544E-3,-6.863021851E-2
1.113811578E1,5.749315023E-4,-7.480643690E-3,-7.862567902E-2
1.115601684E1,-1.060909033E-2,-1.079843938E-2,-8.543014526E-2
1.117391052E1,-3.127813339E-3,-9.792231023E-3,-7.159900665E-2
1.119180102E1,-1.100699604E-2,-7.761992514E-3,-7.219219208E-2
1.120968164E1,-1.355919242E-2,-3.085710108E-3,-6.721782684E-2
1.122758545E1,-3.052322567E-2,-6.531693041E-3,-5.697917938E-2
1.124547729E1,-2.555446327E-2,-7.879316807E-3,-4.269504547E-2
1.126336963E1,-1.960800588E-2,-1.177991182E-2,-3.957653046E-2
1.128126178E1,-1.629941165E-2,-8.488319814E-3,-3.540515900E-2
1.129915661E1,-1.628872752E-2,-1.141696423E-2,-2.343845367E-2
1.131704590E1,-2.043032646E-2,-1.213544607E-2,-3.342914581E-2
1.133493530E1,-1.213802397E-2,-1.756121218E-2,-3.907680511E-2
1.135283032E1,-3.227844834E-3,-7.777988911E-3,-4.718303680E-2
1.137072265E1,5.264282227E-4,-1.148178428E-2,-5.847167969E-2
1.138861486E1,1.087144017E-3,-1.503255963E-2,-6.354331970E-2
1.140650665E1,-5.231395364E-3,-1.327456534E-2,-6.399631500E-2
1.142440167E1,2.702385187E-3,-1.560267806E-2,-6.906127930E-2
1.144229101E1,1.603573561E-3,-1.659344137E-2,-8.214569092E-2
1.146017157E1,-8.384928107E-3,-4.919119179E-3,-7.201766968E-2
1.147807525E1,-1.329667866E-2,-3.465063870E-3,-7.500076294E-2
1.149596728E1,-1.217123866E-2,-7.961988449E-3,-6.246280670E-2
1.151386224E1,-2.616239339E-2,-6.327867508E-3,-5.746936798E-2
1.153175146E1,-2.559907734E-2,-8.360810578E-3,-5.010890961E-2
1.154964386E1,-1.503470540E-2,-1.012355089E-2,-3.607463837E-2
1.156753588E1,-1.910451055E-2,-9.214460850E-3,-3.050994873E-2
1.158542822E1,-2.160322666E-2,-1.201669127E-2,-2.957057953E-2
1.160332006E1,-1.613736153E-2,-1.674836874E-2,-3.064537048E-2
1.162121215E1,-2.914875746E-3,-1.807015389E-2,-3.341102600E-2
1.163910449E1,-1.491099596E-2,-1.997053623E-2,-4.151248932E-2
1.165699646E1,-5.203053355E-3,-1.909431070E-2,-5.079555511E-2
1.167488427E1,2.537518740E-4,-7.713541389E-3,-6.163406372E-2
1.169278344E1,-6.696060300E-3,-3.227882087E-3,-6.958198547E-2
1.171067285E1,-2.433449030E-3,-9.241968393E-3,-7.134914398E-2
1.172856518E1,-4.164636135E-3,7.309019566E-6,-7.682704926E-2
1.174645703E1,-4.474565387E-3,-1.218833774E-2,-7.065773010E-2
1.176434961E1,-8.754253387E-3,-9.165450931E-3,-7.822322845E-2
1.178224090E1,-7.760375738E-3,-1.038760692E-2,-7.068824768E-2
1.180013067E1,-1.054506004E-2,-1.544664055E-2,-6.010913849E-2
1.181802563E1,-1.918572187E-2,-8.424937725E-3,-5.342292786E-2
1.183591796E1,-1.850982010E-2,-5.348891020E-3,-4.332447052E-2
1.185380981E1,-4.482621700E-2,3.207474947E-4,-4.333591461E-2
1.187170471E1,-1.659914851E-3,-1.382326335E-2,2.272605896E-2
1.188959527E1,-1.731362939E-2,-2.256443352E-2,-5.331039429E-4
1.190748632E1,-2.697110176E-4,-2.492170036E-2,4.144287109E-2
1.192537835E1,1.144334674E-3,-1.863022894E-2,-5.321502686E-4
1.194327075E1,3.909423947E-3,-1.072135568E-2,-7.761001587E-3
1.196116345E1,-5.847692490E-3,-1.162679493E-2,-4.512977600E-2
1.197905493E1,2.755686641E-3,-1.581707597E-2,-4.567813873E-2
1.199694995E1,3.834515810E-4,-6.650626659E-3,-4.822921753E-2
1.201483911E1,-4.907712340E-3,-8.651025593E-3,-6.663608551E-2
1.203272436E1,1.172155142E-3,-3.353536129E-3,-7.338142395E-2
1.205062335E1,-9.275972843E-3,-1.070056111E-2,-7.273960114E-2
1.206850464E1,-5.070924759E-3,-8.237771690E-3,-6.355667114E-2
1.208640771E1,-1.472182572E-2,-4.413448274E-3,-6.070327759E-2
1.210429980E1,-1.500047743E-2,-5.361586809E-4,-5.572795868E-2
1.212219189E1,-1.831275225E-2,-1.079855114E-2,-6.105613708E-2
1.214008404E1,-2.041913569E-2,-4.401966929E-3,-4.174041748E-2
1.215797632E1,-1.534987986E-2,-9.476445615E-3,-3.537368774E-2
1.217586834E1,-6.145426631E-2,1.611741632E-2,-4.916572571E-2
1.219376031E1,-4.315081239E-2,-3.319686651E-2,-4.611778259E-2
1.221165240E1,-3.956332803E-3,-4.393857718E-2,-6.704998016E-2
1.222954474E1,1.715682447E-2,-1.682497561E-3,-4.989433289E-2
1.224743689E1,-1.535059512E-2,-1.239024103E-2,-8.138561249E-2
1.226532885E1,1.415674388E-2,-9.233012795E-3,-6.732463837E-2
1.228322094E1,2.831165493E-2,-2.857258916E-2,-5.372714996E-2
1.230110193E1,1.449778676E-2,-3.620905429E-2,-8.076381683E-2
1.231900537E1,4.266019166E-2,-2.701966465E-2,-7.999038696E-2
1.233689746E1,1.009090841E-1,-2.172882855E-2,-5.547809601E-2
1.235479004E1,1.199517995E-1,-9.652927518E-3,-4.520034790E-2
1.237268164E1,1.497537941E-1,-6.374418736E-3,-6.993675232E-2
1.239057373E1,2.662444115E-2,-2.427118272E-2,-3.297033310E-1
1.240845758E1,4.457846284E-3,-1.083087474E-1,1.482295990E-2
1.242636084E1,1.167748719E-1,-7.073053718E-2,-1.757783890E-1
1.244425024E1,5.520728230E-1,-1.216205359E-1,-2.991361618E-1
1.246214239E1,2.051415205E0,-5.392428637E-1,-4.941272736E-2
1.248003430E1,3.126130581E0,-8.270495534E-1,-2.162418365E-1
1.249791668E1,3.452803373E0,-9.034063220E-1,-2.075834274E-1
1.251581891E1,3.259723663E0,-7.164282799E-1,-7.103919983E-2
1.253371148E1,3.017237902E0,-6.248027682E-1,-8.775615692E-2
1.255160308E1,2.800595760E0,-4.682483375E-1,-1.653099060E-2
1.256949072E1,2.737555981E0,-3.956613839E-1,-1.175489426E-1
1.258738720E1,2.553272724E0,-2.114371359E-1,-2.120552063E-1
1.260527581E1,2.127080441E0,-2.633974329E-2,3.867149353E-3
1.262317163E1,1.694828629E0,2.642919719E-1,-1.110620499E-1
1.264106366E1,1.169960260E0,4.534721971E-1,1.542091370E-3
1.265895605E1,8.061830997E-1,5.504286885E-1,-9.743118286E-2
1.267684796E1,7.110427618E-1,5.950539112E-1,-9.205245972E-2
1.269474023E1,6.529748440E-1,6.456098557E-1,-1.184749603E-2
1.271263232E1,4.817771018E-1,7.412719727E-1,-8.978462219E-2
1.273052441E1,3.756883740E-1,7.705252171E-1,-1.260786057E-1
1.274840478E1,2.655850649E-1,7.826470733E-1,-8.281135559E-2
1.276630572E1,1.368056834E-1,7.979143262E-1,-1.920299530E-1
1.278420068E1,1.161832660E-1,8.284555078E-1,-1.352005005E-1
1.280209332E1,9.143255651E-2,8.518001437E-1,-3.036975861E-2
1.281998510E1,4.255083203E-2,8.469664454E-1,-1.285200119E-1
1.283787726E1,-4.716816545E-2,8.208280802E-1,-6.799983978E-2
1.285576910E1,-1.687763035E-1,8.744423389E-1,-1.076078415E-1
1.287366137E1,-2.129174769E-1,8.960463405E-1,-9.729385376E-3
1.289155352E1,-2.300938070E-1,8.743508458E-1,-5.766296387E-2
1.290944970E1,-1.987702698E-1,8.291081190E-1,-5.899524689E-2
1.292732696E1,-1.108568758E-1,8.015995026E-1,2.365398407E-2
1.294522998E1,-5.167625844E-2,7.867624164E-1,-4.628372192E-2
1.296310913E1,-2.084951103E-2,7.770720124E-1,-1.429080963E-2
1.298100268E1,-2.930343151E-3,7.527300119E-1,-1.894855499E-2
1.299889471E1,2.332910895E-2,7.239524722E-1,-5.387306213E-2
1.301678888E1,3.368481994E-2,7.239676714E-1,-3.397274017E-2
1.303467889E1,7.493047416E-2,7.411673069E-1,-5.676460266E-2
1.305258276E1,8.611750603E-2,7.105205655E-1,-6.352329254E-2
1.307047363E1,8.433596790E-2,6.976625919E-1,-8.879756927E-2
1.308835376E1,9.334203601E-2,7.140992284E-1,-9.773159027E-2
1.310625622E1,6.565307081E-2,7.092176080E-1,-9.879207611E-2
1.312415112E1,7.131153345E-2,7.013006210E-1,-1.449546814E-1
1.314204327E1,5.164110661E-2,7.060722709E-1,-9.895133972E-2
1.315993548E1,3.162911534E-2,7.144675851E-1,-7.455730438E-2
1.317782769E1,-3.014979362E-1,8.152223825E-1,-1.163415909E-1
1.319572015E1,-2.402112633E-1,7.374682426E-1,3.350543976E-2
1.321361181E1,-3.514294624E-1,7.454305887E-1,-1.707944870E-1
1.323150287E1,-4.599801898E-1,7.719184756E-1,-5.509376526E-3
1.324939624E1,-5.341858864E-1,7.818257213E-1,5.617046356E-2
1.326727813E1,-7.804453969E-1,7.691288590E-1,-1.095466614E-1
1.328518036E1,-9.362382889E-1,7.884122133E-1,8.430480957E-3
1.330307281E1,-1.144316196E0,8.107020855E-1,-1.154994965E-2
1.332096460E1,-1.236788392E0,8.167784214E-1,3.339385986E-2
1.333885669E1,-1.087015986E0,6.798648834E-1,-5.460166931E-2
1.335674859E1,-1.070511699E0,5.700958371E-1,-1.801786423E-1
1.337464087E1,-1.112242937E0,5.951547027E-1,-2.819442749E-2
1.339253296E1,-1.111849189E0,6.160223484E-1,-4.962062836E-2
1.341042529E1,-1.202521443E0,5.645931959E-1,-8.180427551E-2
1.342830957E1,-1.394404292E0,5.645859838E-1,-9.956836700E-2
1.344620733E1,-1.638014436E0,6.222752333E-1,-6.066036224E-2
1.346410156E1,-1.636445045E0,5.805268288E-1,3.444004059E-2
1.348199365E1,-1.715333819E0,4.927045405E-1,-2.218227386E-1
1.349988623E1,-1.684994698E0,4.769683480E-1,1.787948608E-2
1.351777801E1,-1.451698422E0,4.695329368E-1,8.074092865E-2
1.353567010E1,-1.125041366E0,3.074328005E-1,-1.149950027E-1
1.355356201E1,-8.830222487E-1,1.809206009E-1,-4.658985138E-2
1.357145434E1,-8.068654537E-1,2.060984522E-1,-3.023910522E-2
1.358934680E1,-7.596831918E-1,2.311503291E-1,-7.343292236E-5
1.360722705E1,-6.388831735E-1,1.599721462E-1,-3.784561157E-2
1.362513086E1,-5.059115291E-1,1.132418141E-1,-6.889533997E-2
1.364302386E1,-3.656118512E-1,8.223319054E-2,-6.980991364E-2
1.366091479E1,-2.508422136E-1,7.861982286E-2,-6.653594971E-2
1.367880719E1,-2.018454075E-1,5.306804553E-2,-6.981372833E-2
1.369669922E1,-1.660772711E-1,2.977741882E-2,-1.104545593E-1
1.371459130E1,-1.197136715E-1,2.956981957E-2,-7.520294189E-2
1.373247314E1,-1.213467494E-1,4.335758090E-2,-5.695247650E-2
1.375037585E1,-1.269167066E-1,2.591263130E-2,-7.868099213E-2
1.376826776E1,-1.092738584E-1,1.361162588E-2,-6.046104431E-2
1.378615698E1,-4.449425265E-2,1.171499118E-2,-2.401828766E-2
1.380405487E1,9.389109910E-3,-1.839274168E-2,-5.863380432E-2
1.382194415E1,3.642049432E-2,-2.261431143E-2,2.573871613E-2
1.383983612E1,8.258255571E-2,-1.890864596E-2,-6.417179108E-2
1.385772851E1,4.831059277E-2,-3.846362606E-2,-5.497550964E-2
1.387562036E1,1.160041988E-2,-2.614094689E-2,5.267143250E-3
1.389351251E1,-2.555978298E-2,5.070053041E-3,-7.720088959E-2
1.391140478E1,-5.728318542E-2,2.650618553E-3,-3.938484192E-2
1.392929712E1,-5.659702420E-2,4.919849336E-3,-6.780910492E-2
1.394717163E1,-6.460773945E-2,1.334969699E-2,-5.660343170E-2
1.396507830E1,-6.998887658E-2,8.552793413E-3,-8.844089508E-2
1.398297308E1,-5.593783408E-2,1.208714396E-2,-7.824039459E-2
1.400086254E1,-4.622295499E-2,1.910647750E-2,-5.922412872E-2
1.401875763E1,-3.254915029E-2,7.433034480E-3,-9.418010712E-2
1.403664947E1,-1.955244690E-2,-2.390086651E-3,-5.712032318E-2
1.405454156E1,-1.074393839E-2,1.377759501E-2,-6.060123444E-2
1.407243408E1,8.359313011E-3,-1.012799889E-2,-6.128883362E-2
1.409032623E1,1.603419334E-2,-2.253992110E-2,-2.658939362E-2
1.410822064E1,2.296212316E-2,-1.054151729E-2,-2.155971527E-2
1.412610650E1,2.671560645E-2,-8.420839906E-3,-1.113128662E-2
1.414400482E1,1.669588685E-2,-2.801948413E-2,-1.908588409E-2
1.416189428E1,1.932984591E-2,-1.715347543E-2,-4.769325256E-2
1.417978656E1,1.098195463E-2,-1.200058311E-2,-1.961994171E-2
1.419767480E1,1.462081075E-2,-1.063323766E-2,-6.331157684E-2
1.421557074E1,1.029479504E-2,-1.843773946E-2,-7.286643982E-2
1.423346289E1,9.309984744E-3,-7.377985865E-3,-6.933784485E-2
1.425135492E1,8.774027228E-3,-4.868622869E-3,-7.305908203E-2
1.426924731E1,1.680046320E-3,-6.276048720E-3,-7.833766937E-2
1.428713598E1,1.417777687E-2,-4.905991256E-3,-8.361339569E-2
1.430503125E1,9.395256639E-3,6.539184600E-3,-6.133556366E-2
1.432292352E1,1.461372524E-2,-7.610317320E-3,-7.492828369E-2
1.434081537E1,1.761075109E-2,-1.561805606E-2,-5.278778076E-2
1.435870782E1,2.234946936E-2,-1.507986709E-2,-3.763103485E-2
1.437659991E1,2.806761861E-2,-1.798824221E-2,-3.793907166E-2
1.439449218E1,3.641174734E-2,-1.340892166E-2,-2.753925323E-2
1.441238397E1,3.728587925E-2,-3.003452532E-2,-3.979110718E-2
1.443027642E1,3.557987511E-2,-2.993301861E-2,6.247520447E-3
1.444816833E1,4.550270736E-2,-1.998982579E-2,-3.438854218E-2
1.446606048E1,-1.744247973E-2,-2.498103678E-2,-3.192901611E-2
1.448395550E1,-3.851262480E-2,-3.478646278E-3,8.204460144E-3
1.450184759E1,-8.461825550E-2,-3.993923590E-2,2.296543121E-2
1.451973681E1,-4.148023427E-1,1.699628830E-1,-2.333354950E-2
1.453761517E1,5.366846919E-2,-4.299613088E-2,-2.379617691E-1
1.455552099E1,1.585402489E-1,-7.813711464E-2,-2.982635498E-1
1.457341339E1,1.461947709E-1,-4.256924242E-2,-5.001058578E-1
1.459130365E1,-2.085760236E-3,-3.028120473E-2,-2.909917831E-1
1.460919745E1,1.478106678E-1,4.187884182E-2,-2.029428482E-1
1.462708954E1,7.472945005E-2,-2.909230441E-2,-8.149623871E-2
1.464497845E1,4.340778291E-2,-1.488221809E-2,-2.772798538E-1
1.466287390E1,8.141655475E-2,-1.559116319E-2,-2.636680603E-1
1.468076580E1,9.048357606E-3,-1.681865752E-2,-1.956977844E-1
1.469865820E1,4.492881149E-2,-2.410634980E-2,-3.069496155E-2
1.471655035E1,1.167221367E-2,6.029009819E-5,-3.481674194E-2
1.473444214E1,2.662124485E-2,-2.617734298E-2,-1.361083984E-1
1.475233453E1,-1.308094710E-2,-2.851177007E-3,-8.091926575E-3
1.477022680E1,1.966960728E-3,-2.863764763E-3,-5.229854584E-2
1.478811865E1,-1.811151206E-2,-3.577817231E-3,-1.806001663E-1
1.480601068E1,5.105894804E-2,-5.723184720E-2,-1.036081314E-1
1.482390264E1,-4.193326831E-2,2.221483737E-3,3.695583344E-2
1.484179199E1,6.419318169E-2,1.206545532E-2,-1.089382172E-1
1.485968920E1,-1.234827936E-2,-1.319689304E-2,-8.904361725E-2
1.487757940E1,4.072524607E-3,8.129049093E-3,-7.609748840E-2
1.489547119E1,2.805789560E-2,-7.445901632E-3,-9.905338287E-2
1.491336346E1,1.210413873E-3,2.189219370E-2,-8.828163147E-2
1.493125555E1,2.443271130E-2,-6.912376732E-3,-6.423187256E-2
1.494914764E1,2.940222621E-3,-6.213370711E-3,-4.796314240E-2
1.496703985E1,1.898452640E-2,-6.588287652E-4,-8.123207092E-2
1.498492877E1,4.317775369E-3,-1.233682036E-3,-2.375030518E-2
1.500282379E1,-1.008748263E-2,-1.229179651E-2,-4.302978516E-2
1.502071606E1,-1.360304654E-3,-2.191186696E-2,-5.143356323E-2
1.503860840E1,1.694560051E-4,-1.363556460E-2,-5.502700806E-4
1.505650024E1,-8.368760347E-3,-1.401942596E-2,-1.573562622E-2
1.507439264E1,-1.108532399E-2,-1.379596442E-2,-4.333496094E-2
1.509228454E1,1.147170365E-2,-1.033671573E-2,-4.295921326E-2
1.511017492E1,-3.894522786E-3,-4.725575447E-3,-4.548454285E-2
1.512806829E1,1.755952835E-2,-3.307238221E-3,-9.181594849E-2
1.514596093E1,1.448328048E-2,-2.652466297E-3,-7.455921173E-2
1.516385461E1,1.417021453E-2,-1.167387515E-2,-9.249687195E-2
1.518173883E1,1.743336022E-2,-1.821964979E-4,-8.738040924E-2
1.519963714E1,3.309238702E-2,-2.317555249E-3,-9.169101715E-2
1.521752960E1,1.624114066E-2,2.147965133E-4,-6.704711914E-2
1.523542163E1,2.165662497E-2,-5.756054074E-3,-7.286357880E-2
1.525331372E1,1.419193298E-2,-9.725190699E-3,-4.899024963E-2
1.527120550E1,8.003637195E-4,-1.223796606E-2,-2.898025513E-2
1.528909796E1,1.180337369E-2,-9.283322841E-3,-3.394889832E-2
1.530699017E1,-2.826467156E-3,2.467349172E-3,-8.977890015E-3
1.532487927E1,-8.261665702E-3,-1.416886598E-2,-2.659034729E-2
1.534277423E1,-8.850745857E-3,-1.966124028E-2,-1.589775085E-2
1.536066626E1,-6.461173296E-3,-2.134546638E-3,-3.582668304E-2
1.537855853E1,-1.185538620E-2,-1.441119239E-2,-3.236579895E-2
1.539645074E1,-1.194310933E-2,-2.586130053E-3,-4.974365234E-2
1.541434246E1,-7.195778191E-3,1.359395683E-4,-7.476234436E-2
1.543223486E1,-7.521718740E-3,-5.141001195E-3,-6.950378418E-2
1.545012701E1,-4.426345229E-3,-3.467872739E-4,-8.895874023E-2
1.546802160E1,2.749755979E-3,1.639205962E-3,-9.149742126E-2
1.548591107E1,1.529882848E-2,4.188064486E-3,-9.148502350E-2
1.550380322E1,1.620312035E-2,2.203792334E-3,-8.415508270E-2
1.552169519E1,2.018269897E-2,-2.557624131E-3,-7.804298401E-2
1.553958447E1,2.184760571E-2,-1.103251055E-2,-5.319690704E-2
1.555747973E1,2.059014887E-2,-8.385378867E-3,-3.964042664E-2
1.557537158E1,8.254125714E-3,-1.052887738E-2,-3.208255768E-2
1.559326385E1,1.978874952E-2,-9.090516716E-3,-3.037929535E-2
1.561114209E1,5.344390869E-3,-1.296474040E-2,-1.651287079E-2
1.562904815E1,-8.578598499E-4,-2.019535005E-2,-1.468372345E-2
1.564694134E1,7.383510470E-3,-1.068454608E-2,-3.469562531E-2
1.566483209E1,-3.766566515E-3,-6.047062576E-3,-3.937530518E-2
1.568272430E1,-9.691230953E-3,-5.677983165E-3,-5.597114563E-2
1.570061645E1,-4.348114133E-3,-4.735305905E-3,-6.510066986E-2
1.571850854E1,-5.145050585E-3,1.881439239E-3,-7.071685791E-2
1.573640063E1,-3.594160080E-4,6.531562656E-3,-8.748435974E-2
1.575429272E1,-1.870408654E-3,1.528003812E-2,-9.291744232E-2
1.577218512E1,1.194716245E-2,5.861874670E-3,-7.945442200E-2
1.579007721E1,-2.858400345E-3,7.032889873E-3,-9.508419037E-2
1.580796930E1,6.259784102E-3,-4.108119756E-3,-8.034992218E-2
1.582586126E1,5.805738270E-3,-9.869486094E-4,-5.799293518E-2
1.584375311E1,9.413890541E-3,-5.264516920E-3,-4.703521729E-2
1.586163372E1,1.410596073E-2,-6.053227931E-3,-3.374862671E-2
1.587953473E1,1.348813623E-2,-9.177867323E-3,-2.210712433E-2
1.589743274E1,1.111672074E-2,-1.356957480E-2,-1.665973663E-2
1.591532177E1,-1.519776881E-3,-6.597962230E-3,-1.151466370E-2
1.593321386E1,4.138842225E-3,-1.152278110E-2,-2.462863922E-2
1.595110595E1,-3.164455295E-3,-8.281681687E-3,-3.589534760E-2
1.596899804E1,-1.204350591E-2,-7.603365928E-3,-4.272937775E-2
1.598689007E1,-4.674650729E-3,-9.068515152E-3,-5.530261993E-2
1.600478222E1,-5.989037454E-3,-7.677089423E-3,-7.034587860E-2
1.602267431E1,-4.138648510E-3,4.106279463E-3,-8.172321320E-2
1.604056958E1,-4.160650074E-3,-2.152472734E-5,-8.902549744E-2
1.605845868E1,-7.119327784E-4,-2.047106624E-3,-8.850288391E-2
1.607634967E1,5.429580808E-3,-2.284523100E-3,-8.094501495E-2
1.609424286E1,1.296078414E-2,2.112243325E-3,-8.561325073E-2
1.611213501E1,1.365973800E-2,-1.498781145E-3,-7.570457458E-2
1.613002710E1,8.786141872E-3,3.469996154E-4,-5.600738525E-2
1.614791925E1,1.796805114E-2,-1.659981906E-3,-4.194068909E-2
1.616581134E1,2.574177831E-2,-7.714886218E-3,-2.700710297E-2
1.618370343E1,2.012588829E-2,-9.790804237E-3,-2.098751068E-2
1.620160016E1,1.052551717E-2,-1.981744543E-2,-1.514816284E-2
1.621947467E1,6.601363420E-3,-1.061576605E-2,-2.456474304E-2
1.623736877E1,7.715344429E-3,-1.354909316E-2,-3.198337555E-2
1.625526294E1,3.754608333E-3,-1.304782927E-2,-4.323959351E-2
1.627316693E1,7.251434028E-3,-6.139066070E-3,-5.365180969E-2
1.629105590E1,-2.748057246E-3,-9.087499231E-3,-6.863021851E-2
1.630894830E1,-1.520261168E-3,2.290714532E-3,-7.401943207E-2
1.632684033E1,-5.403807387E-2,2.461971715E-2,-1.120195389E-1
1.634473242E1,2.225449681E-2,1.307686791E-2,-2.329740524E-1
1.636262463E1,-3.811222315E-2,-9.050961584E-3,-3.824138641E-2
1.638051690E1,-1.938648522E-2,2.112814784E-2,-1.208801270E-1
1.639840893E1,-9.398043156E-3,9.255666286E-3,-4.679393768E-2
1.641630078E1,1.135281473E-2,1.226872578E-2,-4.590702057E-2
1.643419293E1,1.480291039E-1,-4.529258609E-2,-2.171554565E-1
1.645208496E1,8.129491657E-2,-1.371361688E-2,-1.059265137E-1
1.646997528E1,8.789969981E-2,-4.205096886E-2,-2.202939987E-1
1.648786938E1,4.538494349E-2,-1.757330820E-2,-1.782512665E-2
1.650576117E1,7.554621994E-2,-3.257997334E-2,-8.043289185E-2
1.652365338E1,3.832808882E-2,-2.330559492E-2,-3.416442871E-2
1.654154565E1,6.657265127E-3,-1.608867198E-2,-6.862449646E-2
1.655942944E1,-1.565328240E-2,-1.461630687E-2,-7.488536835E-2
1.657731836E1,-1.888935268E-2,-4.089307040E-3,-7.215213776E-2
1.659522473E1,-2.169875801E-2,1.457786188E-2,-8.102130890E-2
1.661311401E1,-3.603485227E-2,1.123911887E-2,-6.999301910E-2
1.663100604E1,-9.621135890E-3,6.476294249E-3,-9.075737000E-2
1.664889825E1,-1.007920206E-1,2.913735062E-2,8.662223816E-3
1.666679028E1,-7.336656749E-2,2.430994064E-3,-1.102209091E-1
1.668468237E1,-5.740977079E-2,4.119686782E-3,4.627132416E-2
1.670257464E1,3.222221881E-2,1.404551044E-2,-8.465003967E-2
1.672046655E1,-6.582351029E-2,7.910910994E-3,-4.145431519E-2
1.673835888E1,3.810518980E-2,-2.629910409E-2,-4.109287262E-2
1.675625067E1,2.470654249E-2,2.861928195E-3,-5.376720428E-2
1.677414282E1,1.381501555E-3,-1.025830954E-2,-1.048192978E-1
1.679203204E1,4.000879079E-2,-3.978412598E-2,-2.337360382E-2
1.680992730E1,2.611541003E-2,2.883568406E-3,-2.454376221E-2
1.682781933E1,4.419651628E-2,-2.389232256E-2,-1.350860596E-1
1.684571142E1,4.799588770E-2,-3.357192129E-2,-1.150751114E-1
1.686360351E1,4.215528071E-2,-9.235236794E-3,-1.452922821E-1
1.688149542E1,1.853126287E-2,-4.418820143E-3,-2.389621735E-2
1.689938763E1,4.228407890E-2,-8.816611022E-3,-5.507373810E-2
1.691726849E1,-2.710945904E-3,1.191994920E-2,-5.853366852E-2
1.693517474E1,3.172897547E-2,-7.968183607E-3,-1.259622574E-1
1.695306366E1,1.183475554E-2,1.451254636E-2,-7.786369324E-2
1.697093774E1,1.495539397E-2,2.017863095E-2,-6.916904449E-2
1.698884558E1,7.219269872E-3,-4.905752838E-3,-5.084323883E-2
1.700674023E1,-4.521064460E-3,5.798395723E-3,-4.153919220E-2
1.702463232E1,3.279529512E-3,-6.912805140E-3,-5.792236328E-2
1.704252447E1,-7.309213281E-3,4.966981709E-3,1.364612579E-2
1.706041644E1,1.041476429E-2,5.298200995E-3,-5.913448334E-2
1.707830883E1,-8.716978133E-3,-8.239455521E-3,-6.054401398E-2
1.709619995E1,2.796128392E-4,-8.534286171E-3,-5.166816711E-2
1.711409295E1,-4.632107913E-3,-1.395821571E-3,-3.206920624E-2
1.713198486E1,-5.867145956E-3,-7.951341569E-3,-7.351112366E-2
1.714988061E1,-2.439424396E-3,-5.530703813E-3,-7.961177826E-2
1.716776934E1,-9.424790740E-3,5.506794900E-3,-5.325603485E-2
1.718566101E1,-3.315933049E-3,-1.759946346E-3,-6.463623047E-2
1.720355316E1,-1.229570061E-2,1.306273043E-4,-6.147098541E-2
1.722144531E1,-1.314431429E-3,4.187736660E-3,-6.284046173E-2
1.723933722E1,7.265061140E-4,1.511522755E-2,-3.999996185E-2
1.725721801E1,2.287104726E-3,2.047318965E-3,-7.407188416E-2
1.727512481E1,7.907107472E-3,7.472872734E-3,-4.112243652E-2
1.729300555E1,1.102343202E-2,1.003487036E-2,-4.617691040E-2
1.731090600E1,1.221158355E-2,-3.311533481E-3,-3.574848175E-2
1.732879809E1,2.423054725E-2,-7.307883352E-3,-3.259849548E-2
1.734669012E1,2.179841697E-2,-2.035722136E-3,-5.395603180E-2
1.736458563E1,2.184887230E-2,-1.353261620E-2,-5.458259583E-2
1.738247436E1,1.823968440E-2,-1.021641120E-2,-6.099414825E-2
1.740036639E1,2.201149613E-2,-6.302479655E-3,-5.169105530E-2
1.741825854E1,1.656857133E-2,-1.343854889E-2,-7.254505157E-2
1.743613861E1,8.815631270E-3,-8.721284568E-3,-6.891345978E-2
1.745404577E1,2.243481576E-3,-4.074726254E-3,-6.213951111E-2
1.747193487E1,-6.114244461E-4,-1.934044063E-3,-5.835342407E-2
1.748981549E1,-1.940943301E-3,2.701178193E-3,-6.108188629E-2
1.750770459E1,-4.691563547E-3,5.147375166E-3,-6.060981750E-2
1.752561108E1,-1.001092792E-2,2.013738081E-2,-4.491233826E-2
1.754350268E1,-1.288428158E-2,1.534661278E-2,-5.422401428E-2
1.756139526E1,-1.681583375E-2,1.469649374E-2,-4.942607880E-2
1.757928735E1,-3.880396485E-3,1.206148788E-2,-4.102230072E-2
1.759717169E1,-8.356153965E-3,1.364028081E-2,-3.805255890E-2
1.761507031E1,-1.107293367E-2,3.265719861E-3,-5.534744263E-2
1.763296386E1,-1.568160951E-3,-3.396414220E-3,-5.116176605E-2
1.765085601E1,1.247127354E-2,-6.184436381E-3,-5.017471313E-2
1.766874804E1,6.854139268E-3,-1.215846092E-2,-5.439186096E-2
1.768663989E1,1.718743145E-2,-1.686087251E-2,-6.390857697E-2
1.770453198E1,2.380540967E-2,-1.225887984E-2,-5.917167664E-2
1.772242407E1,1.575806737E-2,-9.582065046E-3,-6.532573700E-2
1.774031616E1,1.569841802E-2,-7.818493992E-3,-6.746387482E-2
1.775819714E1,1.958074421E-2,-1.370301843E-2,-5.427551270E-2
1.777610034E1,1.034435630E-2,-7.831055671E-3,-6.889438629E-2
1.779399633E1,1.292294264E-2,4.157587886E-3,-4.952239990E-2
1.781188452E1,1.052879542E-2,4.781965166E-3,-4.859352112E-2
1.782977691E1,-6.730690598E-3,9.786136448E-3,-5.040073395E-2
1.784766888E1,-6.639689207E-3,7.307231426E-3,-4.699516296E-2
1.786556079E1,1.219145954E-3,1.228852943E-2,-4.712295532E-2
1.788345312E1,-7.361896336E-3,9.897418320E-3,-4.366970062E-2
1.790134808E1,-4.777759314E-4,-7.236875594E-3,-3.859138489E-2
1.791923748E1,-4.874542356E-3,4.924926907E-3,-4.812812805E-2
1.793713574E1,5.303435028E-3,-9.558476508E-3,-4.798030853E-2
1.795501959E1,8.998028934E-3,-1.220129430E-2,-4.589748383E-2
1.797290210E1,2.077654004E-3,-9.520240128E-3,-6.455230713E-2
1.799080590E1,7.787518203E-3,-8.801851422E-3,-5.614852905E-2
1.800869775E1,8.928373456E-3,-5.345463753E-3,-6.309986115E-2
1.802658978E1,1.426134259E-2,-6.237901747E-3,-6.443977356E-2
1.804448193E1,1.614985615E-2,5.917884409E-4,-6.869220734E-2
1.806237408E1,5.327679217E-3,-1.599729061E-3,-6.783866882E-2
1.808026605E1,8.721351624E-3,1.666255295E-3,-7.198905945E-2
1.809815820E1,-8.104965091E-4,1.242036745E-2,-5.618190765E-2
1.811605029E1,-5.060479045E-3,9.381819516E-3,-4.810237885E-2
1.813394531E1,-2.126596868E-3,4.341896623E-3,-5.002498627E-2
1.815183447E1,-5.450755358E-3,1.469113305E-2,-4.974555969E-2
1.816972979E1,-2.379409969E-3,4.225846380E-3,-4.266166687E-2
1.818761865E1,-2.286776900E-3,-1.618083566E-3,-4.864883423E-2
1.820551074E1,1.512356102E-3,-6.629936397E-4,-5.255603790E-2
1.822340283E1,4.197530448E-3,5.172397941E-3,-4.440879822E-2
1.824129486E1,3.325529397E-3,-1.007176936E-2,-5.707168579E-2
1.825918707E1,5.091242492E-3,-1.187281683E-2,-6.718254089E-2
1.827707910E1,5.289450288E-3,-1.325244084E-2,-5.708503723E-2
1.829496856E1,2.580024302E-3,-8.637290448E-3,-5.377388000E-2
1.831286328E1,9.487099946E-3,-6.762120873E-3,-6.643009186E-2
1.833075537E1,1.390408725E-2,-6.916306913E-3,-6.547641754E-2
1.834864770E1,1.347944885E-2,3.556568176E-3,-6.906127930E-2
1.836653955E1,1.260980964E-2,5.446266383E-3,-5.408573151E-2
1.838443164E1,1.464925706E-2,9.168565273E-3,-5.398178101E-2
1.840232660E1,7.026702166E-3,1.591854170E-2,-4.930591583E-2
1.842021606E1,1.076608896E-5,1.079860330E-2,-5.146503448E-2
1.843810797E1,5.812197924E-5,1.072260737E-2,-4.154491425E-2
1.845599994E1,3.524050117E-3,1.393636689E-2,-5.119228363E-2
1.847389453E1,-4.910312593E-3,3.514084965E-3,-4.227924347E-2
1.849178418E1,-2.779304981E-3,4.367798567E-3,-4.945850372E-2
1.850967620E1,1.306436956E-3,3.417808563E-3,-4.922199249E-2
1.852756842E1,3.395803273E-3,1.996144652E-3,-4.786872864E-2
1.854546045E1,6.699413061E-3,-8.648224175E-3,-5.572509766E-2
1.856335254E1,7.139496505E-3,-1.075342670E-2,-5.935859680E-2
1.858124469E1,8.220031857E-3,-1.149158552E-2,-6.532478333E-2
1.859913665E1,1.569221914E-2,-1.000146568E-2,-6.297492981E-2
1.861702880E1,2.113815397E-2,-9.171623737E-3,-6.690311432E-2
1.863491796E1,1.436477900E-2,-6.942499429E-3,-6.126976013E-2
1.865281298E1,7.318370044E-3,-3.455989063E-3,-6.960010529E-2
1.867070507E1,9.172491729E-3,-6.891764700E-3,-5.891418457E-2
1.868859747E1,6.252460182E-3,7.782585919E-3,-5.374050140E-2
1.870648925E1,1.873262227E-3,4.769947380E-3,-4.771423340E-2
1.872438141E1,3.150045872E-3,7.979024202E-3,-5.335235596E-2
1.874227343E1,-8.585830033E-2,7.827807963E-2,-9.274673462E-2
1.876016546E1,-5.754630566E-1,3.830814734E-2,1.398744583E-1
1.877804687E1,-5.607412457E-1,8.121603727E-2,-6.439781189E-2
1.879595257E1,-9.067314267E-1,2.780968845E-1,1.387786865E-2
1.881383813E1,-9.950910807E-1,3.056002259E-1,-2.422142029E-2
1.883173388E1,-1.549967647E0,3.889079988E-1,-8.864307404E-2
1.884962628E1,-2.185092449E0,5.611397028E-1,-2.021598816E-2
1.886752105E1,-2.378535748E0,7.279456258E-1,1.146745682E-1
1.888540722E1,-2.165321112E0,7.092098594E-1,-2.037715912E-2
1.890330224E1,-2.095323801E0,6.425118446E-1,-9.618377686E-2
1.892119427E1,-2.011578798E0,7.004169226E-1,-3.199291229E-2
1.893908667E1,-1.908375502E0,7.886859775E-1,3.738403320E-3
1.895697857E1,-1.756785035E0,7.821464539E-1,-5.431461334E-2
1.897487109E1,-1.522045612E0,7.753931284E-1,-7.638931274E-2
1.899276562E1,-1.341531038E0,7.606534362E-1,-2.996253967E-2
1.901064941E1,-1.200175166E0,8.481873274E-1,-1.030902863E-1
1.902853564E1,-1.153765917E0,8.711714149E-1,9.794521332E-2
1.904644299E1,-9.750780463E-1,8.740282059E-1,-6.498241425E-2
1.906433087E1,-8.735477328E-1,8.868613243E-1,-9.405994415E-2
1.908222589E1,-6.886724234E-1,9.137065411E-1,1.517868042E-2
1.910011493E1,-5.508368015E-1,9.375945330E-1,-1.856613159E-2
1.911799756E1,-4.119241536E-1,8.929109573E-1,-8.740615845E-2
1.913589935E1,-2.635595798E-1,8.854950070E-1,-4.824256897E-2
1.915378259E1,-1.510713845E-1,9.435697794E-1,-5.104064941E-2
1.917168353E1,-1.846639253E-2,8.887588382E-1,-8.275890350E-2
1.918956909E1,1.207836121E-1,8.544452786E-1,-8.778762817E-2
1.920746777E1,1.775574535E-1,8.744170666E-1,-5.181217194E-2
1.922535980E1,2.506115437E-1,8.612512946E-1,-1.117649078E-1
1.924325195E1,2.259188443E-1,8.495050669E-1,-7.479286194E-2
1.926114380E1,2.167936563E-1,8.853107691E-1,-7.031726837E-2
1.927903613E1,1.062148511E-1,9.005764127E-1,-8.924102783E-2
1.929693115E1,-9.343791753E-3,9.384120703E-1,-5.919170380E-2
1.931482013E1,6.336243451E-2,9.478351474E-1,-5.333328247E-2
1.933271246E1,1.332208067E-1,9.329179525E-1,-1.147117615E-1
1.935060003E1,1.835994720E-1,9.324210882E-1,-4.591941833E-3
1.936848401E1,2.874279022E-1,9.283519983E-1,-4.627609253E-2
1.938638842E1,4.053458869E-1,8.845836520E-1,-5.574512482E-2
1.940428051E1,5.613028407E-1,8.444759846E-1,2.309131622E-2
1.942217285E1,6.579601169E-1,8.095485568E-1,-8.599758148E-2
1.944006549E1,6.249981523E-1,7.815673351E-1,-3.946113586E-2
1.945794702E1,5.999811888E-1,7.656518221E-1,-5.284404755E-2
1.947583825E1,6.299626231E-1,7.360086441E-1,-6.995868683E-2
1.949372943E1,7.323256135E-1,6.945196390E-1,-7.812881470E-2
1.951163598E1,7.630191445E-1,6.457147002E-1,-8.672904968E-2
1.952952539E1,8.064658642E-1,6.028929353E-1,-1.065731049E-1
1.954741748E1,8.439605832E-1,5.711185932E-1,-8.036136627E-2
1.956530926E1,8.423856497E-1,5.335633755E-1,-9.030151367E-2
1.958318988E1,8.500043750E-1,5.062465072E-1,-7.679271698E-2
1.960109350E1,9.096746445E-1,4.477828443E-1,-9.688568115E-2
1.961898584E1,1.073985815E0,3.599580526E-1,-7.353115082E-2
1.963687768E1,1.214461803E0,3.046146631E-1,-5.153465271E-2
1.965476977E1,1.358460546E0,2.237828076E-1,-6.373119354E-2
1.967266186E1,1.511588573E0,8.846980333E-2,-1.191329956E-2
1.969055096E1,1.652572751E0,3.041895479E-2,-3.577613831E-2
1.970843914E1,1.707993150E0,-3.655552864E-2,9.908771515E-2
1.972633783E1,1.642721057E0,-7.132926583E-2,-7.418537140E-2
1.974423046E1,1.594409585E0,-1.189330071E-1,-3.837490082E-2
1.976212262E1,1.524414420E0,-1.372572184E-1,-7.208442688E-2
1.978001434E1,1.513556361E0,-2.011151165E-1,-1.228065491E-1
1.979790960E1,1.476812959E0,-2.354672551E-1,-9.897613525E-2
1.981579858E1,1.418933034E0,-2.529660463E-1,-1.461648941E-1
1.983369067E1,1.332511067E0,-2.872970700E-1,-1.487674713E-1
1.985158276E1,1.385943890E0,-3.079134226E-1,-8.672904968E-2
1.986947485E1,1.814290643E0,-4.268528521E-1,-1.379556656E-1
1.988736694E1,2.850579500E0,-7.038114667E-1,-1.040849686E-1
1.990524349E1,5.303305626E0,-9.440459013E-1,3.922605515E-1
1.992315106E1,-5.180655122E-1,-1.733246446E-2,-3.820867538E-1
1.994104345E1,-2.448679507E-2,-1.686741859E-1,6.893920898E-2
1.995893847E1,1.741180271E-1,1.757650524E-1,4.262065887E-2
1.997682739E1,2.668327689E-1,-1.337406039E-1,-6.441974640E-2
1.999472210E1,2.938961983E-2,-1.420916021E-1,-6.653308868E-2
2.001261132E1,-1.881943643E-1,4.007048905E-3,-9.781074524E-2
2.003049591E1,-7.129946351E-2,9.386658669E-2,-3.462791443E-3
2.004838403E1,9.267395735E-2,-3.967793658E-2,-1.575126648E-1
2.006628479E1,-1.486875266E-1,-2.779424191E-3,-4.343318939E-2
2.008417968E1,6.019778550E-2,5.668371916E-3,-1.432161331E-1
2.010205719E1,8.812308311E-3,-5.676048994E-2,-3.392505646E-2
2.011996386E1,-3.841974586E-2,2.393171191E-3,-4.582309723E-2
2.013785589E1,-2.316261828E-2,-1.986611634E-2,4.830265045E-2
2.015574798E1,6.368921697E-2,6.453283131E-3,-1.536140442E-1
2.017364007E1,-2.377703786E-3,-7.466861606E-2,3.217983246E-2
2.019153222E1,-5.865336955E-2,9.485781193E-4,-1.152229309E-2
2.020942462E1,6.274498999E-2,-4.012920335E-2,-5.227851868E-2
2.022730603E1,2.776010334E-2,-3.950008005E-2,-7.341098785E-2
2.024520849E1,-4.698397964E-2,-9.110182524E-3,-5.791473389E-2
2.026310058E1,-1.463142037E-2,3.628656268E-3,-5.092620850E-2
2.028099261E1,3.457999229E-2,-6.239511073E-3,-1.243591309E-1
2.029888763E1,-5.217485875E-2,-1.110370457E-2,-7.522964478E-2
2.031677685E1,-3.823487461E-2,5.797348917E-3,-7.559299469E-2
2.033466876E1,2.171228826E-2,-2.416184545E-2,-5.913639069E-2
2.035256475E1,-4.265516251E-2,1.145310700E-2,-7.823085785E-2
2.037045312E1,-4.805232584E-2,-1.587539911E-3,-5.899047852E-2
2.038834497E1,1.114042103E-2,-3.538180143E-2,-4.301452637E-2
2.040623437E1,-1.643800735E-2,-3.504127264E-3,-1.787376404E-2
2.042413122E1,-4.399690032E-2,8.454881608E-3,-2.693748474E-2
2.044202130E1,7.887527347E-3,-4.036770761E-2,-2.586555481E-2
2.045991333E1,-1.440367103E-2,-1.460357010E-2,-1.595592499E-2
2.047780566E1,-5.001078546E-2,6.758943200E-3,-3.927898407E-2
2.049568579E1,2.804011106E-2,-2.560894936E-2,-6.476116180E-2
2.051358954E1,-1.755073667E-3,-2.140235156E-2,-6.123828888E-2
2.053148169E1,-2.824538946E-2,1.126155257E-2,-7.476329803E-2
2.054937384E1,1.074828207E-2,-1.676268876E-3,-8.236026764E-2
2.056725409E1,-8.814036846E-3,-3.296763450E-2,-8.721446991E-2
2.058515796E1,-3.402274847E-2,1.172690839E-2,-7.622051239E-2
2.060305029E1,5.683049560E-3,-3.276154399E-3,-8.326816559E-2
2.062094207E1,-2.331858873E-2,-1.703592390E-2,-7.220935822E-2
2.063883429E1,-3.828599304E-2,7.579594851E-3,-5.647563934E-2
2.065672638E1,2.299100161E-4,-1.244939864E-3,-3.635501862E-2
2.067461822E1,-3.803782165E-2,-2.383594215E-2,-1.072883606E-2
2.069251031E1,-3.259517252E-2,-1.215758920E-2,-3.375053406E-2
2.071040289E1,-8.845418692E-3,-1.845087111E-2,-1.804924011E-2
2.072829779E1,-2.650283277E-2,-1.229677349E-2,-2.075958252E-2
2.074618383E1,-1.186606288E-2,-1.880750805E-2,-3.850173950E-2
2.076407855E1,-2.981811762E-3,-1.850637048E-2,-4.033660889E-2
2.078196050E1,-8.120387793E-3,-1.014319062E-2,-4.665660858E-2
2.079985070E1,2.568989992E-3,-1.352851838E-2,-7.371902466E-2
2.081775494E1,-4.611685872E-3,-1.162059605E-2,-7.463359833E-2
2.083564697E1,-2.474069595E-3,-1.637141407E-2,-7.947826385E-2
2.085353906E1,-4.085898399E-3,-8.729845285E-4,-7.802963257E-2
2.087142303E1,-1.504480839E-2,2.232193947E-4,-8.334350586E-2
2.088932330E1,-2.062003314E-2,-8.227847517E-3,-7.019042969E-2
2.090720392E1,-1.199465990E-2,-6.737917662E-3,-7.190799713E-2
2.092510839E1,-3.560116142E-2,4.840090871E-3,-5.186748505E-2
2.094299920E1,-2.916229516E-2,-4.290744662E-3,-4.180526733E-2
2.096089148E1,-1.680368185E-2,-2.711558342E-2,-5.112743378E-2
2.097878338E1,-4.008825123E-2,-2.609416842E-3,-2.813720703E-2
2.099667083E1,-1.331156492E-2,-7.331602275E-3,-2.633476257E-2
2.101456762E1,-9.291544557E-3,-2.141796798E-2,-2.424621582E-2
2.103245965E1,-2.332776785E-2,-1.360345632E-2,-2.525138855E-2
2.105035180E1,-5.989074707E-4,-1.570157707E-2,-2.139568329E-2
2.106823217E1,-4.744216800E-3,-1.757667214E-2,-5.100345612E-2
2.108613171E1,-1.287028193E-2,-6.471954286E-3,-6.809711456E-2
2.110401892E1,5.926340818E-3,-4.371263087E-3,-7.375717163E-2
2.112192016E1,-1.016730070E-2,-8.555434644E-3,-7.852840424E-2
2.113981219E1,-6.627738476E-3,-7.520832121E-3,-7.766151428E-2
2.115770434E1,-2.401068807E-3,-2.296842635E-3,-9.147357941E-2
2.117559637E1,-1.669363678E-2,-5.696326494E-3,-8.287334442E-2
2.119348846E1,-1.683703065E-2,-1.034520566E-3,-7.732009888E-2
2.121137475E1,-1.865997910E-2,-4.548117518E-3,-6.629657745E-2
2.122927288E1,-2.248902619E-2,-1.691782475E-2,-5.197620392E-2
2.124715503E1,-2.881427854E-2,-1.056286693E-2,-3.875827789E-2
2.126505401E1,-2.470633388E-2,-3.241755068E-3,-2.888011932E-2
2.128294873E1,-1.850697398E-2,-5.344681442E-3,-3.044509888E-2
2.130084082E1,-1.427431405E-2,-9.142510593E-3,-1.566314697E-2
2.131873571E1,-1.508530974E-2,-1.241487265E-2,-2.083110809E-2
2.133662500E1,-7.198959589E-3,-2.264389396E-2,-3.789997101E-2
2.135451702E1,-6.920233369E-3,-1.207035780E-2,-5.651760101E-2
2.137240918E1,-7.064655423E-3,-1.546356827E-2,-6.086444855E-2
2.139030145E1,8.616209030E-3,-7.960841060E-3,-6.312465668E-2
2.140819336E1,-4.581138492E-3,-1.460666955E-2,-7.084369659E-2
2.142608184E1,-6.736010313E-3,-5.494587123E-3,-8.752250671E-2
2.144397815E1,-7.631853223E-3,2.196446061E-3,-8.979701996E-2
2.146186963E1,-1.422403753E-2,-6.375558674E-3,-8.090114594E-2
2.147976141E1,-1.688350737E-2,-6.381325424E-3,-7.498645782E-2
2.149763922E1,-2.155758440E-2,-5.938701332E-3,-6.027317047E-2
2.151554565E1,-2.751328051E-2,-5.928896368E-3,-4.753971100E-2
2.153343774E1,-2.551701665E-2,-1.650837064E-2,-4.783630371E-2
2.155132983E1,-1.749731600E-2,-7.071107626E-3,-2.116203308E-2
2.156922192E1,-2.419094741E-2,-4.193797708E-3,-2.608013153E-2
2.158710614E1,-1.836910844E-2,-2.663952857E-2,-2.857494354E-2
2.160500366E1,-1.524214447E-2,-2.004162967E-2,-2.954292297E-2
2.162289813E1,-5.176261067E-3,-1.137472689E-2,-4.221534729E-2
2.164078997E1,1.773953438E-3,-1.491314918E-2,-4.487895966E-2
2.165868237E1,-7.457852364E-3,-2.003811300E-2,-4.456424713E-2
2.167657415E1,2.398937941E-4,-5.302019417E-3,-6.486320496E-2
2.169446930E1,-9.434223175E-4,-8.689224720E-3,-7.205963135E-2
2.171235840E1,-4.680544138E-3,7.763803005E-4,-7.412052155E-2
2.173023578E1,-7.877141237E-3,6.463654339E-3,-9.038925171E-2
2.174814257E1,-1.056270301E-2,5.783930421E-3,-8.462142944E-2
2.176603466E1,-2.139490843E-2,-4.248745739E-3,-7.625961304E-2
2.178392968E1,-1.552893221E-2,4.124380648E-3,-7.469367981E-2
2.180182177E1,-1.987937093E-2,1.329228282E-3,-5.984020233E-2
2.181971100E1,-2.907147259E-2,-3.082968295E-3,-4.026699066E-2
2.183760302E1,-1.879782975E-2,-6.525628269E-3,-4.352951050E-2
2.185549481E1,-2.944803238E-2,2.370022237E-3,-2.452754974E-2
2.187338720E1,-2.022896707E-2,-1.415164769E-2,-2.585983276E-2
2.189127899E1,-1.960381866E-2,-1.568427682E-2,-2.698326111E-2
2.190917120E1,-1.238401234E-2,-1.603241265E-2,-3.132534027E-2
2.192706323E1,-6.152406335E-3,-8.669853210E-3,-3.853321075E-2
2.194495593E1,1.910760999E-3,-2.308772504E-2,-4.934597015E-2
2.196284741E1,5.333691835E-3,-1.275256276E-2,-4.934787750E-2
2.198073950E1,5.701079965E-3,-2.130553126E-3,-6.969642639E-2
2.199862017E1,-4.165694118E-3,-3.111958504E-4,-8.201503754E-2
2.201652356E1,-6.049856544E-3,3.839246929E-3,-9.023666382E-2
2.203441577E1,-5.615726113E-3,6.704382598E-3,-8.370494843E-2
2.205230755E1,-1.616968215E-2,-1.350574195E-3,-7.813453674E-2
2.207020349E1,-1.296016574E-2,-3.761067986E-3,-7.471656799E-2
2.208809185E1,-2.800408006E-2,8.495539427E-3,-5.514621735E-2
2.210598388E1,-2.262334526E-2,-8.734986186E-3,-5.251502991E-2
2.212387841E1,-2.190946043E-2,3.570519388E-3,-4.087543488E-2
2.214175042E1,-1.930415630E-2,-3.692217171E-3,-3.282546997E-2
2.215966009E1,-1.841701567E-2,-7.814079523E-3,-2.248191833E-2
2.217755224E1,-8.820742369E-3,-2.092294395E-3,-2.113342285E-2
2.219544427E1,-7.837489247E-3,-1.595607400E-2,-3.082275391E-2
2.221332519E1,-5.010470748E-3,-7.410772145E-3,-3.640460968E-2
2.223122827E1,-1.283317804E-3,-8.255191147E-3,-4.601573944E-2
2.224912243E1,2.136334777E-3,-1.095783710E-2,-6.036758423E-2
2.226701245E1,-4.407584667E-3,-9.835809469E-3,-6.032562256E-2
2.228490356E1,-2.454906702E-3,-1.501439512E-2,-8.118152618E-2
2.230279925E1,-5.591392517E-3,-6.152004004E-3,-8.137893677E-2
2.232068866E1,-7.767662406E-3,6.838440895E-4,-8.188724518E-2
2.233858105E1,-1.654233038E-2,3.053076565E-3,-7.790756226E-2
2.235647290E1,-1.133547723E-2,6.367579103E-3,-7.592678070E-2
2.237435821E1,-2.058012784E-2,4.498511553E-4,-6.107616425E-2
2.239225714E1,-1.732361317E-2,-1.122802496E-3,-5.191993713E-2
2.241014923E1,-2.818640321E-2,-3.486156464E-3,-4.000663757E-2
2.242804126E1,-2.780425549E-2,-1.036271453E-2,-3.306198120E-2
2.244593304E1,-1.940104365E-2,-9.099192917E-3,-2.191925049E-2
2.246382727E1,-2.121341228E-2,-7.879711688E-3,-2.334308624E-2
2.248171753E1,-1.569953561E-2,-1.696082950E-2,-2.350521088E-2
2.249960992E1,-9.068638086E-3,-2.262616158E-2,-3.815555573E-2
2.251750140E1,6.685987115E-3,-1.580916345E-3,-4.271888733E-2
2.253539355E1,1.215398312E-3,-1.806447655E-2,-5.743312836E-2
2.255328564E1,3.590837121E-3,-4.620395601E-3,-5.865383148E-2
2.257117767E1,8.324772120E-3,-1.846790314E-3,-7.233428955E-2
2.258906866E1,-3.652036190E-3,1.745276153E-3,-8.141708374E-2
2.260696185E1,-1.700595021E-3,4.339218140E-4,-8.559703827E-2
2.262485382E1,-9.666532278E-3,-2.272613347E-3,-9.131431580E-2
2.264274585E1,-1.470698416E-2,-1.590073109E-3,-7.188987732E-2
2.266063788E1,-1.899814606E-2,2.247810364E-3,-6.556797028E-2
2.267851837E1,-1.952216029E-2,-7.611013949E-3,-5.790710449E-2
2.269641259E1,-1.973196864E-2,-4.668354988E-3,-4.352283478E-2
2.271430285E1,-1.455700397E-2,-5.703896284E-3,-3.623104095E-2
2.273220923E1,-1.733571291E-2,-1.174468547E-2,-2.930831909E-2
2.275009838E1,-1.689368486E-2,-8.601769805E-3,-2.519416809E-2
2.276799054E1,-9.844124317E-3,-1.572952420E-2,-2.623176575E-2
2.278588250E1,-1.282547414E-2,-1.781345904E-2,-2.729606628E-2
2.280377441E1,-6.273105741E-3,-1.831874251E-2,-5.203342438E-2
2.282166644E1,6.938278675E-3,-3.505401313E-3,-5.133056641E-2
2.283955804E1,8.921921253E-4,-5.895487964E-3,-6.320953369E-2
2.285745068E1,1.575633883E-3,-2.422079444E-3,-7.133769989E-2
2.287534271E1,-2.839356661E-3,-3.402747214E-3,-7.736873627E-2
2.289323486E1,5.458593369E-4,-1.852542162E-3,-8.275413513E-2
2.291112689E1,-4.094779491E-3,-8.684471250E-4,-8.522415161E-2
2.292901910E1,-1.151189208E-2,-3.149680793E-3,-7.452297211E-2
2.294691088E1,-2.255447954E-2,2.682209015E-7,-7.280540466E-2
2.296480328E1,-1.237908006E-2,-1.596875489E-3,-6.210327148E-2
2.298269500E1,-2.122436464E-2,3.382690251E-3,-4.957008362E-2
2.300058709E1,-2.467221022E-2,2.230688930E-3,-3.473377228E-2
2.301846783E1,-2.300491929E-2,-4.329636693E-3,-2.881622314E-2
2.303637133E1,-1.272541285E-2,-1.826605946E-2,-2.897548676E-2
2.305426068E1,-1.647520065E-2,-1.071431488E-2,-3.281021118E-2
2.307215551E1,-1.102627814E-2,-2.471291274E-2,-3.193473816E-2
2.309004760E1,-1.051568985E-2,-1.190043986E-2,-3.575897217E-2
2.310794220E1,-1.310974360E-3,-1.448605955E-2,-4.002857208E-2
2.312582867E1,2.476230264E-3,-3.215506673E-3,-6.110095978E-2
2.314372357E1,8.853122592E-3,-1.326756924E-2,-6.630134583E-2
2.316160406E1,2.594724298E-3,-2.941727638E-3,-7.613849640E-2
2.317950671E1,5.035370588E-3,4.330292344E-3,-8.437633514E-2
2.319740020E1,-7.689028978E-3,-2.925924957E-3,-7.531642914E-2
2.321529199E1,-8.268967271E-3,5.774311721E-3,-7.611846924E-2
2.323318402E1,-1.267805696E-2,8.195549250E-3,-7.660484314E-2
2.325107733E1,-2.126066387E-2,-7.128864527E-3,-6.393623352E-2
2.326896826E1,-2.598943561E-2,-9.368658066E-4,-5.205345154E-2
2.328686010E1,-2.050533891E-2,-5.798116326E-3,-4.230594635E-2
2.330475244E1,-2.355682850E-2,-7.348492742E-3,-3.612899780E-2
2.332264734E1,-2.147400379E-2,-1.186332852E-2,-2.193641663E-2
2.334053631E1,-1.781548560E-2,-1.711745560E-2,-2.774620056E-2
2.335842895E1,-1.011157036E-2,-1.355990767E-2,-2.546882629E-2
2.337632049E1,-1.442745328E-3,-1.522462815E-2,-3.642368317E-2
2.339421270E1,-2.636879683E-3,-5.228742957E-3,-4.287719727E-2
2.341210473E1,2.635985613E-3,-9.082362056E-3,-6.113529205E-2
2.342998346E1,-3.486528993E-3,-2.424582839E-3,-6.504344940E-2
2.344788891E1,4.844740033E-3,8.739531040E-5,-8.060359955E-2
2.346576831E1,-1.873612404E-3,-2.302698791E-3,-8.220100403E-2
2.348367279E1,-4.137799144E-3,-1.717753708E-3,-8.357906342E-2
2.350156781E1,-6.770744920E-3,6.847605109E-3,-8.843898773E-2
2.351945703E1,-1.610109210E-2,4.008516669E-3,-8.578872681E-2
2.353734778E1,-2.943339199E-2,-6.286852062E-3,-6.844329834E-2
2.355524408E1,-2.192670107E-2,-4.882432520E-3,-5.986404419E-2
2.357313324E1,-3.095256537E-2,2.448067069E-3,-4.612445831E-2
2.359102215E1,-2.759297192E-2,-7.939986885E-3,-3.179359436E-2
2.360891754E1,-2.164550126E-2,-5.813717842E-3,-2.505111694E-2
2.362680932E1,-1.871681213E-2,-1.565843821E-2,-3.260517120E-2
2.364470141E1,-1.117029786E-2,-1.329976320E-2,-3.404235840E-2
2.366259356E1,-1.134425402E-2,-7.488623261E-3,-2.593994141E-2
2.368048565E1,-9.274795651E-3,-6.059445441E-3,-3.925609589E-2
2.369837768E1,-1.850828528E-3,-9.221039712E-3,-4.857349396E-2
2.371626947E1,-1.235619187E-3,-1.086598635E-2,-6.774330139E-2
2.373416180E1,8.266523480E-3,-1.285381615E-3,-7.448101044E-2
2.375205371E1,4.419907928E-3,-1.214310527E-3,-7.673740387E-2
2.376994610E1,-7.170721889E-3,-1.898981631E-3,-8.059787750E-2
2.378783813E1,-7.062017918E-3,3.466203809E-3,-7.795715332E-2
2.380572992E1,-9.477093816E-3,-4.219859838E-3,-8.081436157E-2
2.382361071E1,-1.639080048E-2,3.269955516E-3,-7.603263855E-2
2.384151410E1,-1.363676786E-2,1.161009073E-3,-6.163787842E-2
2.385940332E1,-2.707514167E-2,-8.778788149E-3,-4.700660706E-2
2.387728711E1,-2.862537652E-2,-5.005791783E-3,-3.552818298E-2
2.389519305E1,-2.037987113E-2,-8.365258574E-3,-2.072048187E-2
2.391308221E1,-1.829391718E-2,-1.081478596E-2,-2.381706238E-2
2.393097357E1,-1.035217941E-2,-1.219876856E-2,-3.023147583E-2
2.394886670E1,-1.204267144E-2,-1.682568341E-2,-1.421546936E-2
2.396675848E1,-4.304781556E-3,-1.506959647E-2,-3.749084473E-2
2.398465063E1,2.880811691E-3,-7.929302752E-3,-4.504489899E-2
2.400254242E1,3.323391080E-3,-1.026724279E-2,-6.046581268E-2
2.402043451E1,3.352686763E-3,-1.107238233E-2,-7.256793976E-2
2.403832714E1,3.983736038E-3,-9.611070156E-3,-7.732677460E-2
2.405621875E1,9.437054396E-4,-7.035583258E-5,-8.731555939E-2
2.407411090E1,-8.598417044E-4,-2.412199974E-3,-9.097480774E-2
2.409200293E1,-1.031847298E-2,2.839416265E-4,-7.695865631E-2
2.410989526E1,-1.437489688E-2,1.145630330E-2,-7.174491882E-2
2.412778711E1,-1.384037733E-2,6.367564201E-4,-6.777381897E-2
2.414567914E1,-1.748923957E-2,-2.948209643E-3,-5.905056000E-2
2.416357122E1,-2.447035909E-2,3.488399088E-3,-4.655456543E-2
2.418146307E1,-1.540309191E-2,-1.228005439E-2,-2.439785004E-2
2.419936242E1,-2.167569846E-2,-1.415545493E-2,-2.307891846E-2
2.421723590E1,-1.163256168E-2,-8.736677468E-3,-2.369499207E-2
2.423514227E1,-1.138709486E-2,-1.551951468E-2,-2.945232391E-2
2.425303143E1,-5.039498210E-3,-1.486808062E-2,-3.232288361E-2
2.427092328E1,-2.871915698E-3,-1.379789412E-2,-4.620361328E-2
2.428881280E1,9.015351534E-3,-1.055806875E-2,-4.938507080E-2
2.430670746E1,6.002455950E-3,5.308166146E-4,-6.573867798E-2
2.432459961E1,5.244880915E-3,5.726911128E-3,-7.974147797E-2
2.434248040E1,-5.436241627E-4,1.368626952E-3,-8.476543427E-2
2.436038372E1,-4.809886217E-3,1.993209124E-3,-8.441925049E-2
2.437827374E1,-7.319435477E-3,2.476029098E-3,-8.214759827E-2
2.439616796E1,-1.372238994E-2,3.248848021E-3,-7.150650024E-2
2.441406066E1,-1.952674985E-2,-3.857865930E-3,-6.389808655E-2
2.443195196E1,-1.651163399E-2,-4.071287811E-3,-5.514717102E-2
2.444984424E1,-1.702058315E-2,-2.584964037E-3,-4.736328125E-2
2.446773602E1,-2.385161072E-2,-7.590889931E-3,-3.319072723E-2
2.448562817E1,-2.403596044E-2,-4.505448043E-3,-2.872848511E-2
2.450352026E1,-1.026034355E-2,-1.336034387E-2,-2.719402313E-2
2.452141229E1,-1.125046611E-2,-8.811213076E-3,-3.122234344E-2
2.453930743E1,-8.746609092E-3,-1.502228528E-2,-3.196239471E-2
2.455719622E1,6.840378046E-3,-1.202058792E-2,-4.389381409E-2
2.457508685E1,-2.261057496E-3,-7.261343300E-3,-5.102920532E-2
2.459298144E1,1.102364063E-2,-8.627913892E-3,-7.175254822E-2
2.461087231E1,6.664857268E-3,-9.301915765E-3,-6.063365936E-2
2.462876208E1,5.540490150E-3,5.094818771E-3,-8.304214478E-2
2.464665674E1,-2.472415566E-3,2.959102392E-3,-8.890914917E-2
2.466455206E1,-5.200639367E-3,4.286929965E-3,-8.125019073E-2
2.468244061E1,-1.115681231E-2,-2.693906426E-3,-7.697105408E-2
2.470033288E1,-1.401083171E-2,4.393324256E-3,-7.434558868E-2
2.471822479E1,-3.140986711E-2,7.108300924E-4,-6.534576416E-2
2.473611682E1,-2.336505800E-2,4.019089043E-3,-5.258560181E-2
2.475401153E1,-2.053090930E-2,-4.676297307E-3,-3.700447083E-2
2.477190081E1,-1.982428133E-2,-6.387218833E-3,-2.742671967E-2
2.478978180E1,-1.504001021E-2,-8.759506047E-3,-2.747440338E-2
2.480768536E1,-1.077164710E-2,-7.888212800E-3,-2.252578735E-2
2.482557714E1,-9.140491486E-3,-1.294538379E-2,-2.252483368E-2
2.484346924E1,2.810552716E-3,-1.199567318E-2,-3.989887238E-2
2.486136108E1,-9.270101786E-3,-2.844303846E-3,-5.800151825E-2
2.487925311E1,6.249561906E-3,-5.718961358E-3,-6.375694275E-2
2.489713598E1,1.993462443E-3,-4.645138979E-4,-7.062149048E-2
2.491503515E1,7.221609354E-3,3.823898733E-3,-8.007526398E-2
2.493292944E1,-3.387063742E-3,-1.361154020E-3,-9.556484222E-2
2.495082153E1,-4.896715283E-3,-2.418003976E-3,-8.884334564E-2
2.496871362E1,-2.691328526E-3,-7.663771510E-3,-8.266258240E-2
2.498660571E1,-1.418580115E-2,2.830855548E-3,-7.547283173E-2
2.500449756E1,-1.722836494E-2,6.588526070E-3,-6.270599365E-2
2.502238964E1,-1.184861287E-1,1.394362003E-2,-8.120727539E-2
2.504028180E1,1.941391826E-2,-2.724773437E-2,-3.647422791E-2
2.505817407E1,3.193168342E-2,-7.149413228E-3,-5.412006378E-2
2.507606652E1,3.800171614E-2,-1.455722004E-2,-7.568359375E-3
2.509396093E1,-8.262035251E-2,-1.114906371E-2,-3.809547424E-2
2.511184979E1,-4.006741941E-2,-9.409956634E-3,9.939193726E-3
2.512974218E1,-3.114855289E-2,7.567405701E-4,-2.669048309E-2
2.514763434E1,2.045047283E-2,-1.290148497E-2,-5.010700226E-2
2.516552911E1,1.792233288E-1,5.735322833E-3,9.122085571E-2
2.518341821E1,-7.810801268E-3,3.374054283E-2,-2.726945877E-1
2.520131024E1,-1.809605658E-1,-1.562731713E-2,-1.041984558E-2
2.521920221E1,-4.910755157E-2,-2.111972868E-2,-2.972126007E-2
2.523709442E1,9.077437222E-2,3.959596157E-3,-8.227825165E-2
2.525498346E1,2.625532448E-2,6.088063121E-3,-1.189117432E-1
2.527287841E1,-3.774607182E-2,-4.986591637E-3,9.162902832E-3
2.529075976E1,8.492374420E-2,-3.781415522E-3,-6.070709229E-2
2.530865576E1,2.640984356E-1,-2.499411255E-2,-6.503868103E-2
2.532655493E1,8.090550900E-1,-2.081602514E-1,-4.056930542E-2
2.534444647E1,2.086235285E0,-5.609463453E-1,-4.925155640E-2
2.536233862E1,2.770214319E0,-7.247800827E-1,-1.588516235E-1
2.538023059E1,2.945711851E0,-7.571580410E-1,-1.106996536E-1
2.539812274E1,2.804147243E0,-6.036475301E-1,7.495784760E-2
2.541601458E1,2.521536112E0,-5.331437588E-1,-2.308130264E-1
2.543390753E1,2.152586699E0,-3.427105248E-1,-1.756763458E-2
2.545179882E1,1.961671591E0,-2.409567237E-1,-1.162395477E-1
2.546969116E1,1.564203262E0,-7.087705284E-2,-4.871463776E-2
2.548758294E1,1.289623141E0,3.926243633E-2,-5.257606506E-3
2.550547503E1,1.180812240E0,1.217887774E-1,-1.348772049E-1
2.552336688E1,1.046302795E0,2.373507917E-1,3.122043610E-2
2.554125909E1,6.656413078E-1,3.735074997E-1,-1.332283020E-3
2.555915332E1,2.922208309E-1,4.693710804E-1,-1.238813400E-1
2.557704321E1,1.380090266E-1,5.022053719E-1,3.501033783E-2
2.559493182E1,7.023568451E-2,5.187920928E-1,-8.584213257E-2
2.561282714E1,3.094260395E-2,5.269425511E-1,-1.351051331E-1
2.563071948E1,2.892594039E-2,5.335527062E-1,-3.728675842E-2
2.564861157E1,5.080790818E-2,5.248290896E-1,-1.721181870E-1
2.566650341E1,7.845634222E-2,4.976712465E-1,-1.091556549E-1
2.568439526E1,1.517789513E-1,4.780834913E-1,-1.039304733E-1
2.570228753E1,1.804227531E-1,4.747802913E-1,-1.239337921E-1
2.572017938E1,1.257314384E-1,4.967317283E-1,-6.288051605E-2
2.573807171E1,1.113082618E-1,5.045884848E-1,-8.204841614E-2
2.575596362E1,1.443157941E-1,5.084662437E-1,-2.543830872E-2
2.577385791E1,1.797357351E-1,4.951801896E-1,-4.443740845E-2
2.579174810E1,2.365055680E-1,4.950738251E-1,-4.790878296E-2
2.580963983E1,2.659397125E-1,5.011273026E-1,4.554748535E-2
2.582753198E1,3.683265448E-1,4.882204533E-1,-3.914642334E-2
2.584542382E1,3.960318565E-1,4.966177940E-1,3.002166748E-3
2.586331567E1,3.082205653E-1,5.347591639E-1,-2.408790588E-2
2.588120794E1,1.716217995E-1,5.746119022E-1,6.110191345E-3
2.589910016E1,1.139482707E-1,5.850439072E-1,-2.005863190E-2
2.591698071E1,8.633452654E-2,5.810006857E-1,-7.522487640E-2
2.593488299E1,1.340049654E-1,5.808269978E-1,-6.495475769E-2
2.595277954E1,6.180064380E-2,6.022539735E-1,-9.120559692E-2
2.597066497E1,-1.791649461E-1,6.695805788E-1,-9.486484528E-2
2.598854614E1,-3.090155721E-1,6.678168774E-1,-5.892944336E-2
2.600645208E1,-3.690381646E-1,6.489925981E-1,-1.198482513E-1
2.602434424E1,-3.370686769E-1,6.143773198E-1,-8.273601532E-2
2.604223632E1,-2.887768745E-1,6.192070842E-1,-6.621742249E-2
2.606012817E1,-2.755277753E-1,6.023676395E-1,-5.119037628E-2
2.607802044E1,-3.714950681E-1,6.024851799E-1,-2.858924866E-2
2.609591229E1,-4.796347022E-1,6.006979942E-1,-3.604125977E-2
2.611380438E1,-4.752022028E-1,5.879327059E-1,-2.365970612E-2
2.613169653E1,-4.725761116E-1,5.715683699E-1,-3.514862061E-2
2.614958868E1,-4.635398686E-1,5.442332625E-1,-1.876735687E-2
2.616748065E1,-5.754479766E-1,5.427269340E-1,-3.720951080E-2
2.618537469E1,-7.521815300E-1,5.649436116E-1,-4.942131042E-2
2.620326464E1,-9.302412271E-1,5.848119855E-1,-2.294921875E-2
2.622115674E1,-9.857583046E-1,5.603843331E-1,-6.224918365E-2
2.623904901E1,-9.475395679E-1,5.142762065E-1,-5.812358856E-2
2.625694091E1,-8.426471949E-1,4.598399401E-1,-8.566570282E-2
2.627483282E1,-7.765862942E-1,4.234361053E-1,-8.896064758E-2
2.629271344E1,-8.250616193E-1,4.141259789E-1,-6.624031067E-2
2.631061664E1,-9.258280993E-1,4.142543674E-1,-3.645896912E-2
2.632849756E1,-1.038434744E0,4.211774170E-1,-6.882667542E-2
2.634640081E1,-1.070554256E0,3.970987499E-1,-4.747962952E-2
2.636429290E1,-1.087061882E0,3.890013993E-1,-3.187751770E-2
2.638218506E1,-1.111358047E0,3.809121847E-1,-4.750728607E-2
2.640007714E1,-1.140018940E0,3.669245243E-1,-1.410770416E-2
2.641796924E1,-1.140390515E0,3.479536474E-1,-3.083610535E-2
2.643586108E1,-1.035233736E0,2.891701162E-1,-4.223155975E-2
2.645375696E1,-8.928723931E-1,2.465217113E-1,-4.846668243E-2
2.647164526E1,-8.342077732E-1,2.338390946E-1,-3.972434998E-2
2.648952594E1,-7.877136469E-1,2.086303234E-1,-6.247043610E-2
2.650742944E1,-6.482183933E-1,1.621638983E-1,-6.281566620E-2
2.652532122E1,-3.900562823E-1,1.111437380E-1,-5.468463898E-2
2.654321344E1,-1.508142054E-1,4.259010032E-2,-7.772922516E-2
2.656110540E1,-4.931390285E-2,-2.254977822E-3,-9.691333771E-2
2.657899780E1,-3.607769310E-2,-3.396980464E-4,-7.674026489E-2
2.659688964E1,-3.533028066E-2,1.853168383E-2,-6.282424927E-2
2.661478149E1,-5.181583017E-2,2.353762463E-2,-5.398559570E-2
2.663267358E1,-5.363405496E-2,1.323670894E-2,-4.525279999E-2
2.665056543E1,-6.467273831E-2,1.884364709E-2,-3.708648682E-2
2.666844799E1,-6.287185848E-2,2.627548575E-2,-3.439235687E-2
2.668634961E1,-5.920116231E-2,1.591007039E-2,-3.496646881E-2
2.670424170E1,-6.448367238E-2,2.015314624E-2,-2.900695801E-2
2.672213378E1,-7.110168040E-2,1.353511214E-2,-3.848266602E-2
2.674002569E1,-6.156131998E-2,1.600306481E-2,-4.308509827E-2
2.675791772E1,-5.780291557E-2,1.306791976E-2,-4.782295227E-2
2.677580951E1,-5.998085439E-2,1.151162758E-2,-5.342388153E-2
2.679369018E1,-5.176796392E-2,9.032409638E-3,-7.151031494E-2
2.681159662E1,-5.122597516E-2,9.567685425E-3,-8.385372162E-2
2.682948608E1,-4.897449166E-2,5.007144064E-3,-6.665325165E-2
2.684737787E1,-5.161721632E-2,1.256841421E-2,-7.467746735E-2
2.686527026E1,-4.609942436E-2,9.367682040E-3,-6.867980957E-2
2.688316400E1,-3.905753791E-2,6.187636405E-3,-5.522918701E-2
2.690105420E1,-4.570703208E-2,8.487723768E-3,-5.581760406E-2
2.691893182E1,-5.190217495E-2,1.162898168E-2,-5.511283875E-2
2.693683807E1,-4.331757873E-2,1.227082685E-2,-4.297351837E-2
2.695472998E1,-5.219055712E-2,1.596202329E-2,-3.471660614E-2
2.697262207E1,-5.171995610E-2,8.343677968E-3,-3.640460968E-2
2.699051464E1,-4.594088718E-2,1.719144732E-2,-2.337741852E-2
2.700839477E1,-5.238204449E-2,2.320464700E-2,-4.059696198E-2
2.702629510E1,-6.416353583E-2,1.412751898E-2,-4.346752167E-2
2.704419018E1,-5.845277384E-2,5.858756602E-3,-5.115890503E-2
2.706208221E1,-6.028341129E-2,1.380363479E-2,-6.470394135E-2
2.707997406E1,-6.014816463E-2,6.811659783E-3,-5.651473999E-2
2.709786651E1,-6.002081186E-2,1.314782724E-2,-7.465744019E-2
2.711575824E1,-5.650370568E-2,4.428327084E-3,-7.163238525E-2
2.713365039E1,-4.590444267E-2,7.137931883E-3,-6.285762787E-2
2.715154254E1,-4.901638255E-2,1.105698943E-2,-6.837177277E-2
2.716943432E1,-4.565239698E-2,1.036622748E-2,-5.887699127E-2
2.718731543E1,-4.693211988E-2,5.745414644E-3,-4.866504669E-2
2.720521850E1,-4.599027336E-2,1.211570203E-2,-5.118656158E-2
2.722311065E1,-3.522489965E-2,1.045821980E-2,-4.100513458E-2
2.724100262E1,-3.006898612E-2,1.036879420E-2,-3.604888916E-2
2.725889422E1,-2.876269072E-2,4.983313382E-3,-4.272460938E-2
2.727678668E1,-2.215744555E-2,-2.185553312E-3,-4.019927979E-2
2.729467926E1,-2.710954845E-2,3.991797566E-4,-4.542827606E-2
2.731257068E1,-1.440336555E-2,-3.558780998E-3,-5.681610107E-2
2.733046020E1,-1.130792499E-2,-1.004155353E-2,-5.849456787E-2
2.734834130E1,5.306601524E-4,-5.625449121E-3,-6.043720245E-2
2.736624389E1,6.217457354E-3,-9.882539511E-3,-6.435775757E-2
2.738413885E1,1.593220234E-2,-1.231836900E-2,-7.096385956E-2
2.740203076E1,3.240293264E-2,-1.577728987E-2,-8.089065552E-2
2.741992273E1,3.011829406E-2,-1.915005967E-2,-7.212829590E-2
2.743781488E1,3.945437819E-2,-1.707426086E-2,-7.219409943E-2
2.745570697E1,3.548140824E-2,-3.326240927E-3,-6.343460083E-2
2.747359881E1,3.765111417E-2,-1.463253796E-2,-5.500793457E-2
2.749149121E1,3.712241352E-2,-1.364839450E-2,-5.638980865E-2
2.750938305E1,3.583582491E-2,-6.906457245E-3,-4.739952087E-2
2.752726342E1,3.231278062E-2,-1.992370933E-3,-3.919410706E-2
2.754516687E1,3.305180371E-2,-9.125724435E-3,-3.656005859E-2
2.756305902E1,3.290016204E-2,-5.593147129E-3,-3.169345856E-2
2.758095092E1,1.919449121E-2,-9.260598570E-3,-3.994941711E-2
2.759884326E1,2.239782363E-2,-1.494264603E-2,-4.443836212E-2
2.761673510E1,1.826368272E-2,-9.536020458E-3,-5.124950409E-2
2.763462744E1,1.813350618E-2,-1.014420390E-2,-5.714511871E-2
2.765251928E1,2.059318870E-2,-1.589826867E-2,-5.738735199E-2
2.767041259E1,1.878005266E-2,-1.770994067E-2,-6.595134735E-2
2.768828863E1,2.769009769E-2,-2.170201764E-2,-7.088756561E-2
2.770619238E1,2.627524734E-2,-1.288518682E-2,-7.167053223E-2
2.772408813E1,3.431139141E-2,-1.358747482E-2,-6.859111786E-2
2.774197949E1,-3.714617491E-1,3.058285266E-2,-1.333522797E-1
2.775986017E1,-2.173789144E-1,2.377211452E-1,1.322493553E0
2.777776275E1,2.672891319E-2,8.107067645E-2,-4.011840820E-1
2.779565252E1,-1.026699543E-1,-1.190383732E-1,4.887866974E-2
2.781354736E1,7.603517920E-2,-8.962981403E-3,1.584663391E-1
2.783143945E1,2.658750117E-2,7.530869544E-2,7.661437988E-2
2.784933148E1,2.490084618E-2,9.370036423E-4,1.430912018E-1
2.786721197E1,8.876999468E-2,-6.529340148E-2,-3.975391388E-1
2.788511474E1,-1.136571914E-2,-9.868100286E-3,1.886520386E-1
2.790300757E1,5.803573877E-2,1.101840287E-3,-8.961105347E-2
2.792089972E1,2.631887048E-2,1.190955192E-2,4.715824127E-2
2.793879174E1,-4.377390444E-2,-2.563632429E-1,-1.050489426E0
2.795668463E1,-7.819969207E-2,4.367143661E-2,3.817796707E-1
2.797457568E1,-1.355562508E-1,8.113759756E-2,-7.789678574E-1
2.799247070E1,-2.189652920E-1,-4.658481106E-2,-6.066455841E-1
2.801036016E1,1.356569678E-1,-5.250506848E-2,-6.379480362E-1
2.802825171E1,1.534036100E-1,-6.673266739E-2,-2.918777466E-1
2.804614068E1,-1.498765498E-2,6.712950766E-2,-3.468160629E-1
2.806403845E1,1.634538174E-2,-5.074777454E-2,-4.075336456E-1
2.808192773E1,9.231567383E-4,4.691937566E-2,-5.937957764E-2
2.809981970E1,-2.856925130E-4,2.063460276E-2,-2.759370804E-1
2.811771185E1,3.165537119E-2,1.483453438E-2,-1.917009354E-1
2.813560394E1,5.238141865E-2,-3.013633192E-3,-1.710252762E-1
2.815349292E1,4.137784243E-2,-5.839106813E-2,-2.270669937E-1
2.817138794E1,5.274301022E-2,-2.325904369E-2,5.434703827E-2
2.818928033E1,4.336922616E-2,-2.146524191E-2,-2.938795090E-1
2.820715716E1,4.245840758E-2,-6.158997118E-2,-9.634590149E-2
2.822506121E1,1.984745264E-2,-1.346148923E-2,7.699871063E-2
2.824295599E1,1.492755115E-2,-1.094490290E-4,-1.629838943E-1
2.826084802E1,2.659370005E-2,-3.302556649E-2,3.795909882E-2
2.827873700E1,-7.086925209E-3,-3.780927509E-3,-5.791950226E-2
2.829663494E1,3.681128472E-2,-8.293919265E-3,-1.290206909E-1
2.831452417E1,-1.413146406E-2,6.727114320E-3,8.103561401E-2
2.833241620E1,1.388651878E-2,-1.130462438E-2,-1.633243561E-1
2.835030835E1,3.299757093E-2,2.406611294E-2,2.591419220E-2
2.836820184E1,9.926991165E-2,-3.231254220E-2,-4.045009613E-2
2.838609124E1,5.203121156E-2,3.918291256E-2,-1.440238953E-2
2.840398742E1,1.316401213E-1,-8.589681238E-2,-1.991271973E-2
2.842187640E1,8.607325703E-2,-5.510523915E-2,-1.276016235E-1
2.843976825E1,-1.335868388E-1,9.023458511E-2,-8.524894714E-2
2.845766034E1,-3.543823361E-1,1.119329557E-1,-5.610275269E-2
2.847555224E1,-8.735834360E-1,2.094355524E-1,5.377483368E-2
2.849344421E1,-1.407393575E0,3.347639143E-1,-1.660108566E-1
2.851133618E1,-1.588072419E0,4.468406141E-1,-8.241653442E-3
2.852922851E1,-1.511091709E0,4.185525477E-1,1.480770111E-2
2.854710626E1,-1.367390752E0,3.596216440E-1,-8.276653290E-2
2.856500921E1,-1.219927907E0,3.613691628E-1,-1.209259033E-2
2.858290429E1,-1.141229033E0,3.702383637E-1,-4.626941681E-2
2.860079632E1,-1.087329149E0,3.604941666E-1,-4.519367218E-2
2.861869177E1,-1.057358027E0,3.986991644E-1,5.636215210E-4
2.863658056E1,-1.063285351E0,3.842654228E-1,-9.645843506E-2
2.865446087E1,-9.836654067E-1,4.197907448E-1,-1.006431580E-1
2.867236450E1,-9.593070745E-1,4.401592612E-1,-8.768081665E-3
2.869025689E1,-8.964960575E-1,4.571768045E-1,-1.135931015E-1
2.870814850E1,-8.562544584E-1,4.443211854E-1,-5.751228333E-2
2.872604052E1,-7.731787562E-1,4.718888104E-1,-6.881237030E-2
2.874393554E1,-6.899617910E-1,4.779843390E-1,-5.202484131E-2
2.876182440E1,-6.413916945E-1,4.925582409E-1,-3.069877625E-2
2.877971679E1,-5.121760964E-1,4.556416571E-1,-5.796146393E-2
2.879761151E1,-3.981861472E-1,5.000609756E-1,3.377819061E-2
2.881550079E1,-3.001103103E-1,4.589873254E-1,-1.006565094E-1
2.883339264E1,-2.233318090E-1,4.582928717E-1,-4.046630859E-2
2.885128454E1,-1.441002488E-1,4.755492508E-1,-7.028293610E-2
2.886917675E1,-1.288825274E-1,4.537259638E-1,-2.961540222E-2
2.888706884E1,-1.125195175E-1,4.669372439E-1,-7.576370239E-2
2.890495996E1,-7.309646159E-2,4.712204933E-1,-1.038179398E-1
2.892285302E1,-7.505691797E-2,4.802864790E-1,-2.036666870E-2
2.894074462E1,-4.074484855E-2,4.791795611E-1,-9.312534332E-2
2.895863696E1,-4.265313596E-2,4.870870113E-1,-6.425857544E-2
2.897652887E1,-2.231993899E-2,4.861543477E-1,-5.339717865E-2
2.899442096E1,-1.010994241E-2,4.942452908E-1,-6.607437134E-2
2.901231274E1,-9.691745043E-3,5.208930969E-1,-2.398300171E-2
2.903020208E1,1.892752945E-3,5.120255947E-1,-4.506969452E-2
2.904809698E1,2.337105572E-3,5.221983790E-1,-3.748035431E-2
2.906598871E1,2.040506899E-2,5.264330506E-1,-4.113960266E-2
2.908388476E1,2.907004952E-2,5.405001640E-1,-2.678775787E-2
2.910176129E1,6.465537846E-2,5.361857414E-1,-4.396629333E-2
2.911966424E1,4.019667208E-2,5.355586410E-1,-6.769752502E-2
2.913754541E1,-3.387345001E-2,5.596988797E-1,-9.406757355E-2
2.915543762E1,-1.281313449E-1,6.044739485E-1,-7.019329071E-2
2.917332824E1,-9.251387417E-2,6.094393134E-1,-8.240604401E-2
2.919123285E1,-3.564953059E-2,5.949313641E-1,-1.095962524E-1
2.920911480E1,4.422660917E-2,5.762286782E-1,-8.805847168E-2
2.922701684E1,1.370592713E-1,5.625523925E-1,-9.275627136E-2
2.924490625E1,2.201641500E-1,5.608139634E-1,-7.956409454E-2
2.926280102E1,2.598254085E-1,5.468829870E-1,-6.746006012E-2
2.928069305E1,2.540362775E-1,5.420268774E-1,-6.427478790E-2
2.929858807E1,2.531192601E-1,5.453986526E-1,-3.692245483E-2
2.931647705E1,2.961786389E-1,5.370482802E-1,-2.810478210E-2
2.933436920E1,3.685987890E-1,5.151245594E-1,-2.667999268E-2
2.935226098E1,4.942353070E-1,4.739102125E-1,-3.975105286E-2
2.937015332E1,6.249717474E-1,4.247509241E-1,-3.504180908E-2
2.938804498E1,6.479482651E-1,3.961367011E-1,-4.195976257E-2
2.940593695E1,5.840123892E-1,3.939413130E-1,-7.437801361E-2
2.942383209E1,6.113168001E-1,3.575114906E-1,-8.360671997E-2
2.944171795E1,7.537268400E-1,2.914304435E-1,-7.683658600E-2
2.945961297E1,9.153272510E-1,2.235514522E-1,-1.029043198E-1
2.947750366E1,1.128266931E0,1.000348851E-1,-1.192998886E-1
2.949539715E1,1.304504037E0,3.223934770E-2,-6.808757782E-2
2.951328167E1,1.375451326E0,4.924431443E-3,2.243041992E-3
2.953118115E1,1.253970861E0,-2.312417328E-2,-1.098117828E-1
2.954907324E1,1.180712938E0,-4.261686653E-2,-8.479785919E-2
2.956696527E1,1.190521240E0,-5.552654341E-2,-6.354236603E-2
2.958485717E1,1.138335943E0,-8.755272627E-2,-4.655742645E-2
2.960274951E1,1.125997782E0,-1.155656278E-1,-8.894920349E-2
2.962064111E1,1.134821415E0,-1.422704607E-1,-3.336715698E-2
2.963853320E1,1.225895882E0,-1.914553344E-1,-8.847427368E-2
2.965642523E1,1.516538143E0,-2.683158815E-1,-6.607437134E-2
2.967431707E1,2.593887806E0,-5.897737145E-1,-5.670833588E-2
2.969220916E1,6.134817600E0,-1.045148253E0,1.208353043E-1
2.971010138E1,1.340299249E0,-9.593635798E-1,-1.220989227E-2
2.972799340E1,-4.198028743E-1,-3.054037094E-1,2.337684631E-1
2.974588525E1,1.200832427E-2,1.036836132E-1,-3.852844238E-3
2.976377734E1,4.145299196E-1,-1.723328829E-1,2.832927704E-1
2.978166943E1,3.690984845E-2,-5.285607651E-2,-5.178928375E-2
2.979956347E1,1.143095940E-1,-2.622905374E-2,-4.860877991E-2
2.981745337E1,-1.333271712E-1,1.439011097E-1,-2.607536316E-2
2.983534515E1,-1.809681654E-1,2.165347338E-3,-1.765775681E-1
2.985323797E1,5.790337920E-3,2.724076062E-2,-8.878231049E-2
2.987112939E1,1.934355795E-1,-7.908573002E-2,-6.345176697E-2
2.988902008E1,-1.174319386E-1,-2.490200102E-2,3.958988190E-2
2.990691333E1,6.734724343E-2,7.567957044E-3,-1.138992310E-1
2.992480536E1,1.081036329E-1,-3.243749589E-2,-1.485633850E-1
2.994270007E1,-1.410659701E-1,1.613173634E-2,1.327800751E-2
2.996058929E1,1.749679446E-2,1.814179122E-3,-3.701972961E-2
2.997847857E1,3.804002702E-2,-5.826395750E-2,-8.645725250E-2
2.999637353E1,-6.647775322E-2,2.512793243E-2,-2.419567108E-2
3.001426562E1,-2.530944347E-2,1.877114922E-2,-5.692481995E-3
3.003215741E1,-3.067870438E-2,-2.577535808E-3,-7.019042969E-2
3.005004956E1,3.614246845E-2,-3.144518286E-2,1.781082153E-2
3.006794159E1,-2.008691430E-2,2.668641508E-3,2.524089813E-2
3.008582177E1,-7.665893435E-2,1.348005980E-2,2.778339386E-2
3.010372534E1,6.748504937E-2,-3.911941871E-2,-5.363559723E-2
3.012160870E1,1.162315905E-2,-3.345115483E-2,-3.046607971E-2
3.013951123E1,-5.305749178E-2,1.547233760E-2,-5.360412598E-2
3.015740405E1,2.122443914E-2,-8.638367057E-3,-2.582931519E-2
3.017529333E1,3.410772979E-2,-3.578205407E-2,-9.033775330E-2
3.019317376E1,-6.601664424E-2,-3.268145025E-3,-6.218433380E-2
3.021107733E1,-8.174777031E-5,3.389288485E-2,-6.441783905E-2
3.022896978E1,2.600836754E-2,-1.861242205E-2,-7.346439362E-2
3.024686065E1,-3.106677532E-2,-1.557527483E-2,-7.794380188E-2
3.026475372E1,-2.211536467E-2,3.097829968E-2,-6.677341461E-2
3.028264538E1,2.492181957E-2,-1.031998545E-2,-6.176567078E-2
3.030053753E1,-4.362219572E-2,-2.970636263E-2,-6.122970581E-2
3.031842968E1,-2.396477759E-2,1.366436481E-4,-2.693367004E-2
3.033632153E1,1.201879978E-2,-2.811349928E-3,-2.555751801E-2
3.035421362E1,-3.621434420E-2,-9.982869029E-3,-1.209545135E-2
3.037210546E1,-4.287227988E-3,-9.745061398E-3,-1.984500885E-2
3.038999780E1,1.198838651E-2,-9.119473398E-3,-2.799510956E-2
3.040788958E1,-1.296840608E-2,8.405797184E-3,-3.047370911E-2
3.042578149E1,-9.281635284E-4,-1.385875046E-2,-3.701305389E-2
3.044367358E1,1.858794689E-2,-1.383317262E-2,-5.694961548E-2
3.046156561E1,-6.887272000E-3,4.179716110E-3,-7.452392578E-2
3.047944628E1,1.136678457E-2,-2.606794238E-3,-8.308315277E-2
3.049735443E1,8.421182632E-3,-2.423287183E-2,-8.463954926E-2
3.051524426E1,-1.780802757E-2,1.260410249E-2,-7.569122314E-2
3.053312445E1,6.070733070E-5,-4.608213902E-3,-7.597446442E-2
3.055102563E1,-1.507313550E-2,-7.873140275E-3,-5.321216583E-2
3.056891772E1,-1.625950634E-2,1.318702847E-2,-4.648017883E-2
3.058681213E1,-4.406422377E-4,-1.207654923E-2,-4.455089569E-2
3.060470166E1,-2.042443305E-2,-1.173980534E-2,-3.608036041E-2
3.062259369E1,-9.519532323E-3,8.564144373E-4,-2.806377411E-2
3.064048553E1,-5.703628063E-3,-1.885762811E-2,-3.103828430E-2
3.065836615E1,-9.745210409E-3,-2.302781492E-2,-3.059864044E-2
3.067626971E1,-1.398354769E-3,4.193559289E-3,-3.017330170E-2
3.069416150E1,1.355037093E-2,-1.676239073E-2,-3.452014923E-2
3.071205389E1,-1.123920083E-3,-8.205913007E-3,-5.459594727E-2
3.072994549E1,1.708905399E-2,4.856511950E-4,-7.206249237E-2
3.074783764E1,9.264886379E-3,-7.825672626E-3,-6.807422638E-2
3.076572650E1,-7.398575544E-3,-1.256065816E-2,-7.071495056E-2
3.078362152E1,7.386252284E-3,8.220218122E-3,-8.347892761E-2
3.080151367E1,-2.628937364E-3,-2.128869295E-3,-8.319377899E-2
3.081940252E1,-1.715223491E-2,-8.802205324E-3,-6.918716431E-2
3.083728662E1,-3.264904022E-3,-2.961285412E-3,-6.581211090E-2
3.085519256E1,-1.931752264E-2,-2.420917153E-3,-5.809116364E-2
3.087308178E1,-2.004839480E-2,3.224685788E-4,-5.295276642E-2
3.089097363E1,-1.970078796E-2,-3.332555294E-3,-3.948211670E-2
3.090886590E1,-1.146702468E-2,-3.055423498E-3,-2.495765686E-2
3.092675757E1,1.712918282E-3,-5.168467760E-3,-2.767467499E-2
3.094464965E1,-1.143142581E-3,-3.224305809E-3,-2.899646759E-2
3.096254425E1,1.559317112E-3,-1.329392195E-3,-2.183818817E-2
3.098043408E1,2.451032400E-3,-1.213134825E-2,-4.105091095E-2
3.099832562E1,7.266387343E-3,-1.740156859E-2,-5.234813690E-2
3.101621777E1,1.026168466E-2,-1.992285252E-3,-7.228374481E-2
3.103410962E1,6.413251162E-3,-2.009443939E-3,-6.980514526E-2
3.105200177E1,-3.594756126E-4,-3.531821072E-3,-7.486057281E-2
3.106989386E1,4.888400435E-3,4.175439477E-3,-9.091758728E-2
3.108778564E1,-1.163452864E-3,1.073196530E-3,-7.075023651E-2
3.110567749E1,-8.844032884E-3,-8.901275694E-3,-7.571506500E-2
3.112355780E1,-1.256673038E-2,-2.353467047E-3,-6.773948669E-2
3.114146161E1,-1.361924410E-2,4.975169897E-3,-5.969905853E-2
3.115934936E1,-1.515388489E-2,-3.424987197E-3,-4.672050476E-2
3.117723443E1,-1.154427230E-2,-2.351641655E-3,-4.375267029E-2
3.119514428E1,-1.806131005E-2,3.503002226E-3,-2.906513214E-2
3.121302954E1,-6.461396813E-3,-8.641503751E-3,-3.042697906E-2
3.123092071E1,2.070263028E-3,-1.331096888E-2,-3.313541412E-2
3.124881378E1,1.199722290E-3,-1.156654954E-2,-2.791213989E-2
3.126670581E1,3.989100456E-3,-1.266940683E-2,-3.718662262E-2
3.128459765E1,8.572280407E-3,-1.240446419E-2,-4.898643494E-2
3.130248944E1,9.727522731E-3,-9.055756032E-3,-6.080532074E-2
3.132037957E1,5.570814013E-3,-8.364893496E-3,-6.817436218E-2
3.133827368E1,1.260788739E-2,-1.189780980E-2,-8.010101318E-2
3.135616577E1,9.395375848E-3,-1.113672554E-2,-9.234428406E-2
3.137405755E1,-4.320487380E-3,-1.429677010E-3,-8.870601654E-2
3.139194970E1,-3.447964787E-3,-5.239598453E-3,-7.333660126E-2
3.140984179E1,-6.190344691E-3,3.763757646E-3,-6.572055817E-2
3.142773236E1,-7.513403893E-3,8.516520262E-3,-5.911922455E-2
3.144562542E1,-1.484894753E-2,3.159441054E-3,-4.986381531E-2
3.146351751E1,-7.641330361E-3,1.192688942E-3,-4.938030243E-2
3.148140966E1,-1.490174234E-2,-4.903405905E-3,-3.612518311E-2
3.149930273E1,-1.001326740E-2,-1.428502053E-2,-3.364276886E-2
3.151719305E1,-3.568187356E-3,-6.399199367E-3,-2.872085571E-2
3.153508386E1,-2.697959542E-3,-1.003624499E-2,-3.442287445E-2
3.155297747E1,4.319548607E-4,-1.338218898E-2,-2.736854553E-2
3.157085839E1,5.267903209E-3,-8.104905486E-3,-3.736782074E-2
3.158876172E1,7.039085031E-3,-3.166422248E-3,-5.456829071E-2
3.160665380E1,1.012797654E-2,-7.838524878E-3,-5.822658539E-2
3.162454565E1,5.158945918E-3,-7.699072361E-3,-8.321380615E-2
3.164242865E1,7.781058550E-3,1.862101257E-3,-7.995414734E-2
3.166032946E1,5.307272077E-3,-5.756571889E-3,-7.507133484E-2
3.167822162E1,-6.519734859E-3,-5.813241005E-4,-7.551670074E-2
3.169611346E1,-8.660808206E-3,1.004919410E-3,-6.501483917E-2
3.171400848E1,-9.889855981E-3,4.102282226E-3,-5.871582031E-2
3.173189770E1,-1.164884865E-2,4.946537316E-3,-5.590915680E-2
3.174978985E1,-1.208922267E-2,-2.086222172E-3,-4.348659515E-2
3.176768158E1,-5.107387900E-3,-1.124103367E-2,-3.316783905E-2
3.178557348E1,-1.221860945E-2,-4.105024040E-3,-2.974605560E-2
3.180346545E1,-2.607584000E-3,-4.395872355E-3,-2.030181885E-2
3.182135736E1,4.806518555E-4,-1.211630553E-2,-2.795219421E-2
3.183925366E1,4.187032580E-3,-3.746971488E-3,-2.973365784E-2
3.185713574E1,1.386612654E-3,-6.906516850E-3,-4.138946533E-2
3.187503448E1,8.672192693E-3,-5.864307284E-3,-5.129146576E-2
3.189292523E1,5.551978946E-3,-4.312060773E-3,-6.489086151E-2
3.191081768E1,3.329694271E-3,-8.403509855E-5,-7.189750671E-2
3.192870971E1,4.643812776E-3,-1.234292984E-3,-7.773208618E-2
3.194660156E1,5.178600550E-4,-9.466931224E-4,-7.678508759E-2
3.196449334E1,-8.995071054E-3,3.758169711E-3,-7.572269440E-2
3.198238830E1,5.459338427E-4,-5.520485342E-3,-7.539844513E-2
3.200027728E1,-9.541690350E-3,-5.575418472E-4,-6.275939941E-2
3.201816937E1,-1.437991858E-2,1.798264682E-3,-4.807090759E-2
3.203605774E1,-1.836177707E-2,-3.928780556E-3,-4.896736145E-2
3.205395623E1,-1.165612042E-2,-4.028975964E-3,-3.705978394E-2
3.207184539E1,-1.253309846E-2,-5.718559027E-3,-2.684402466E-2
3.208973755E1,-5.643710494E-3,-1.233249158E-2,-1.568031311E-2
3.210761505E1,-1.282438636E-3,-6.587281823E-3,-3.170013428E-2
3.212552142E1,3.817275167E-3,-7.660105824E-3,-3.252506256E-2
3.214341333E1,1.038898528E-2,-6.538428366E-3,-3.948307037E-2
3.216130542E1,2.326741815E-3,-7.907114923E-3,-5.686378479E-2
3.217919726E1,8.762672544E-3,-1.142112911E-2,-6.467533112E-2
3.219708935E1,5.530014634E-3,6.542272866E-3,-6.484699249E-2
3.221497821E1,5.777984858E-3,3.647379577E-3,-7.196807861E-2
3.223287323E1,4.749640822E-3,2.650685608E-3,-8.182239532E-2
3.225076538E1,1.640364528E-3,4.054605961E-5,-8.070468903E-2
3.226865747E1,-7.041901350E-3,2.483278513E-3,-7.539749146E-2
3.228654931E1,-4.140391946E-3,2.349443734E-3,-6.451988220E-2
3.230444110E1,-7.474973798E-3,-3.331005573E-4,-5.908584595E-2
3.232233325E1,-1.196992397E-2,-4.008859396E-4,-3.974628448E-2
3.234022503E1,-1.258036494E-2,1.212589443E-3,-3.451347351E-2
3.235811480E1,-9.549528360E-3,-3.517962992E-3,-3.133010864E-2
3.237599816E1,-5.983024836E-3,-5.501136184E-4,-1.853561401E-2
3.239389123E1,-9.281203151E-3,-3.955788910E-3,-3.267860413E-2
3.241178198E1,2.844274044E-3,-4.094578326E-3,-2.004241943E-2
3.242968847E1,3.525078297E-3,-2.893880010E-4,-4.103660583E-2
3.244758001E1,4.041850567E-3,-7.280506194E-3,-3.887844086E-2
3.246546893E1,5.950942636E-3,-3.700457513E-3,-5.797290802E-2
3.248336096E1,4.541054368E-3,-2.580098808E-3,-6.960296631E-2
3.250125311E1,3.859415650E-3,-1.403063536E-3,-7.929515839E-2
3.251914496E1,1.067744195E-2,1.514092088E-3,-7.962512970E-2
3.253703711E1,3.404468298E-4,1.150388271E-2,-8.278942108E-2
3.255492657E1,7.600784302E-4,2.722308040E-3,-8.166503906E-2
3.257282104E1,-2.545043826E-3,7.647350430E-3,-6.621551514E-2
3.259071838E1,-6.943985820E-3,4.490271211E-3,-5.635261536E-2
3.260860547E1,-9.407103062E-3,3.346778452E-3,-5.551815033E-2
3.262649414E1,-4.251584411E-3,-4.163794219E-3,-4.200267792E-2
3.264439184E1,-8.255541325E-3,-7.525458932E-3,-3.174304962E-2
3.266228100E1,-8.603408933E-3,-2.470090985E-3,-1.947021484E-2
3.268017309E1,-3.051534295E-3,-6.570756435E-3,-2.930355072E-2
3.269806512E1,5.855157971E-3,-3.237687051E-3,-3.431320190E-2
3.271595703E1,7.215261459E-3,-1.576217264E-2,-3.557872772E-2
3.273384997E1,8.015558124E-3,3.092996776E-3,-4.517078400E-2
3.275174096E1,1.020941138E-2,-2.033375204E-3,-5.378627777E-2
3.276963305E1,1.483350992E-2,9.565204382E-4,-6.107425690E-2
3.278752514E1,9.608820081E-3,-6.370864809E-3,-6.966876984E-2
3.280541693E1,4.206895828E-3,-6.509155035E-3,-6.500911713E-2
3.282330902E1,5.921378732E-3,-4.012733698E-4,-8.085060120E-2
3.284120086E1,-6.921425462E-3,7.790990174E-3,-8.133983612E-2
3.285909271E1,-3.713577986E-3,7.051713765E-3,-6.897544861E-2
3.287698102E1,-2.894625068E-3,-4.829391837E-4,-7.100105286E-2
3.289487542E1,-1.594806463E-2,1.456379890E-3,-5.632591248E-2
3.291277270E1,-1.279982924E-2,-4.207707942E-3,-3.863716125E-2
3.293066076E1,-1.093089581E-2,4.967287183E-3,-3.828907013E-2
3.294854199E1,-1.740417629E-2,-3.877051175E-3,-4.068565369E-2
3.296644482E1,-5.682796240E-3,-1.120103896E-2,-3.114509583E-2
3.298433862E1,-8.582934737E-3,-5.921415985E-3,-2.587604523E-2
3.300222894E1,-2.635851502E-3,-1.086790860E-2,-3.772354126E-2
3.302012054E1,9.400442243E-3,-7.342435420E-3,-3.855705261E-2
3.303801275E1,7.567346096E-3,-5.600534379E-3,-5.343723297E-2
3.305590490E1,8.674263954E-3,-8.297808468E-3,-6.042194366E-2
3.307378534E1,8.367121220E-3,-2.261832356E-3,-7.366275787E-2
3.309168841E1,9.713634849E-3,-9.078726172E-3,-7.245731354E-2
3.310958075E1,7.131576538E-3,-7.425993681E-4,-7.266902924E-2
3.312747265E1,1.201331615E-3,-9.883344173E-4,-7.072353363E-2
3.314536743E1,2.551078796E-5,3.242403269E-3,-6.708526611E-2
3.316325677E1,-1.055468619E-2,8.042298257E-3,-6.539249420E-2
3.318114862E1,-1.207524538E-2,4.858598113E-4,-5.977535248E-2
3.319904071E1,-1.606702805E-2,-6.399303675E-4,-4.654693604E-2
3.321693261E1,-1.432079077E-2,-3.947310150E-3,-3.523731232E-2
3.323482476E1,-1.662737131E-2,1.236468554E-3,-3.390312195E-2
3.325271649E1,-1.399090886E-2,-5.491741002E-3,-3.098583221E-2
3.327060846E1,-5.719602108E-3,-9.613014758E-3,-2.667331696E-2
3.328848700E1,2.902433276E-3,-8.424736559E-3,-2.043437958E-2
3.330639257E1,4.765421152E-3,-9.175069630E-3,-3.935527802E-2
3.332428442E1,3.339335322E-3,-3.019221127E-3,-5.009746552E-2
3.334217620E1,5.575254560E-3,-8.036449552E-3,-5.620574951E-2
3.336005682E1,5.794420838E-3,-3.882929683E-3,-6.601047516E-2
3.337796045E1,1.142391562E-2,2.432614565E-3,-7.172393799E-2
3.339585247E1,6.163924932E-3,-6.124265492E-3,-8.441257477E-2
3.341374334E1,3.726392984E-3,-5.058363080E-3,-9.110736847E-2
3.343163617E1,-2.897560596E-3,3.354825079E-3,-7.080078125E-2
3.344952850E1,-5.078956485E-3,-4.601374269E-3,-6.374263763E-2
3.346742041E1,-2.298071980E-3,3.731928766E-3,-5.581092834E-2
3.348531219E1,-1.175948977E-2,3.718562424E-3,-5.590820312E-2
3.350320459E1,-1.246687770E-2,-1.501172781E-3,-4.423522949E-2
3.352109613E1,-4.415497184E-3,-5.466915667E-3,-2.878665924E-2
3.353898822E1,-5.561336875E-3,-1.417159289E-2,-3.876495361E-2
3.355688012E1,-5.808934569E-3,-4.588797688E-3,-2.091503143E-2
3.357477197E1,1.226335764E-3,-9.012937546E-3,-3.083705902E-2
3.359266937E1,4.640072584E-4,-1.437256485E-2,-4.858398438E-2
3.361055615E1,7.564187050E-3,-4.269033670E-3,-5.040931702E-2
3.362843609E1,1.776517928E-2,-7.901981473E-3,-5.558586121E-2
3.364633722E1,1.427008212E-2,-6.997227669E-3,-6.319427490E-2
3.366423211E1,9.764760733E-3,-4.229709506E-3,-7.244491577E-2
3.368212402E1,5.202621222E-3,-3.963187337E-3,-7.059669495E-2
3.370001587E1,2.325564623E-3,-4.081599414E-3,-7.481575012E-2
3.371790796E1,1.986443996E-3,1.421652734E-3,-7.572364807E-2
3.373580011E1,-5.278170109E-3,-3.108419478E-3,-7.389450073E-2
3.375369214E1,-1.584135741E-2,1.126326621E-3,-6.255626678E-2
3.377158392E1,-9.223759174E-3,1.351252198E-3,-5.537033081E-2
3.378946173E1,-1.089183986E-2,-8.940026164E-4,-5.072879791E-2
3.380736792E1,-1.368719339E-2,-3.918699920E-3,-3.956508636E-2
3.382525927E1,3.993809223E-4,-2.395495772E-3,-3.580665588E-2
3.384315185E1,-1.161997020E-2,-6.972923875E-4,-2.901172638E-2
3.386104394E1,-3.125786781E-3,-2.491652966E-3,-2.692699432E-2
3.387893792E1,1.134976745E-3,-7.433272898E-3,-3.044414520E-2
3.389682788E1,7.882863283E-3,-5.968734622E-3,-3.108119965E-2
3.391471972E1,7.421270013E-3,-8.692100644E-3,-6.409168243E-2
3.393261151E1,4.912704229E-3,-1.191595197E-2,-6.429004669E-2
3.395049383E1,1.012820005E-2,3.797858953E-4,-6.258583069E-2
3.396838092E1,5.506262183E-3,-3.788165748E-3,-7.010173798E-2
3.398628485E1,8.129954338E-3,-7.608726621E-3,-7.557678223E-2
3.400417968E1,-2.572908998E-3,-2.797834575E-3,-7.212257385E-2
3.402205999E1,-2.425387502E-3,7.131487131E-3,-6.187152863E-2
3.403996362E1,-8.490473032E-3,-2.364702523E-3,-6.958484650E-2
3.405785559E1,-1.991943270E-2,-1.572534442E-3,-5.493736267E-2
3.407574749E1,-9.474948049E-3,-2.807460725E-3,-4.448127747E-2
3.409363964E1,-9.575977921E-3,1.473322511E-3,-3.251743317E-2
3.411153149E1,-1.007860899E-2,-8.366182446E-4,-3.092098236E-2
3.412942358E1,-4.244148731E-4,-5.765706301E-3,-3.454494476E-2
3.414730414E1,2.131521702E-3,2.411603928E-4,-2.600002289E-2
3.416520715E1,6.405517459E-3,-9.661488235E-3,-3.500652313E-2
3.418309924E1,1.281188428E-2,-7.225692272E-3,-4.208087921E-2
3.420099115E1,7.456928492E-3,-1.106239855E-3,-4.622173309E-2
3.421888336E1,1.489040256E-2,-1.064159721E-2,-6.045627594E-2
3.423677508E1,6.301090121E-3,-6.839863956E-3,-7.207489014E-2
3.425466723E1,1.221580803E-2,-4.011198878E-3,-7.452583313E-2
3.427255957E1,9.463280439E-3,1.768141985E-3,-8.361816406E-2
3.429043945E1,2.669632435E-3,-8.651167154E-4,-8.212661743E-2
3.430832818E1,-2.899438143E-3,1.848869026E-3,-7.374858856E-2
3.432623217E1,2.499073744E-4,3.214992583E-3,-7.419681549E-2
3.434412719E1,-1.085332036E-2,-4.812531173E-3,-6.276035309E-2
3.436201904E1,-7.215708494E-3,5.393102765E-4,-4.984188080E-2
3.437991107E1,-1.120674610E-2,5.998164415E-4,-3.867816925E-2
3.439780298E1,-1.101101935E-2,2.222135663E-3,-3.152942657E-2
3.441568402E1,-7.644847035E-3,-1.484645158E-2,-2.578830719E-2
3.443358715E1,-5.934968591E-3,-3.541015089E-3,-3.017234802E-2
3.445147863E1,4.639178514E-3,-3.183856606E-3,-3.438377380E-2
3.446935962E1,4.275172949E-3,-1.777920872E-2,-4.103565216E-2
3.448725122E1,8.667618036E-3,1.937843859E-3,-4.922199249E-2
3.450515478E1,1.200312376E-2,-4.144214094E-3,-6.739139557E-2
3.452304687E1,1.465232670E-2,-2.662837505E-5,-6.825828552E-2
3.454093860E1,1.262532175E-2,1.725777984E-3,-7.444572449E-2
3.455883111E1,1.387697458E-2,3.689624369E-3,-6.761646271E-2
3.457672259E1,8.422732353E-3,-6.730839610E-3,-7.243442535E-2
3.459461761E1,-2.314642072E-3,2.180561423E-3,-7.576656342E-2
3.461250653E1,-1.049947739E-2,5.633190274E-3,-7.244682312E-2
3.463039752E1,-4.406884313E-3,-1.157425344E-3,-7.119369507E-2
3.464829284E1,-5.879297853E-3,-7.720947266E-3,-5.261802673E-2
3.466617962E1,-3.600448370E-3,2.192288637E-3,-4.354000092E-2
3.468407470E1,-9.494453669E-3,-7.708735764E-3,-3.987407684E-2
3.470196655E1,-1.230306923E-2,-9.102553129E-3,-3.196334839E-2
3.471985827E1,-5.538403988E-3,-4.002861679E-3,-2.469444275E-2
3.473775055E1,-2.521768212E-3,-8.579224348E-3,-2.472877502E-2
3.475564264E1,1.110568643E-2,-1.293931901E-2,-2.643680573E-2
3.477353442E1,6.090179086E-3,-2.537086606E-3,-4.398822784E-2
3.479141192E1,4.626631737E-3,-5.544409156E-3,-6.032085419E-2
3.480931836E1,1.095834374E-2,-7.532387972E-4,-5.119228363E-2
3.482719873E1,1.140467823E-2,6.956085563E-4,-7.408428192E-2
3.484509979E1,1.282851398E-2,6.690055132E-3,-8.504104614E-2
3.486299432E1,1.958489418E-3,4.296675324E-3,-8.242702484E-2
3.488088910E1,-3.603309393E-3,3.614559770E-3,-7.614803314E-2
3.489877801E1,-7.867321372E-3,3.114148974E-3,-6.891345978E-2
3.491667620E1,-2.113386989E-3,-9.055353701E-3,-6.387519836E-2
3.493456231E1,-8.627414703E-3,2.798207104E-3,-5.228137970E-2
3.495245404E1,-5.683347583E-3,-1.496270299E-3,-5.322170258E-2
3.497034643E1,-1.322568953E-2,-6.716385484E-3,-4.028701782E-2
3.498823797E1,-1.027309895E-2,-3.788433969E-3,-3.355598450E-2
3.500612664E1,-9.453698993E-3,1.006111503E-3,-2.321147919E-2
3.502402466E1,-1.116991043E-3,-7.181935012E-3,-2.962303162E-2
3.504189709E1,-3.592520952E-3,1.807652414E-3,-2.459239960E-2
3.505980584E1,6.734445691E-3,-6.786197424E-3,-3.875637054E-2
3.507769793E1,1.373559237E-2,-1.865401864E-3,-5.323886871E-2
3.509559277E1,1.396101713E-2,-1.445904374E-3,-6.517887115E-2
3.511348187E1,1.164568961E-2,-5.461223423E-3,-7.040023804E-2
3.513137378E1,8.863478899E-3,-2.802163363E-5,-8.384799957E-2
3.514926562E1,1.606281102E-2,5.521543324E-3,-8.470821381E-2
3.516714306E1,5.781158805E-3,-1.217355579E-2,-7.723712921E-2
