"Time (s)","Acceleration x (m/s^2)","Acceleration y (m/s^2)","Acceleration z (m/s^2)"
1.537886400E-2,-5.700899959E-1,1.077368379E0,9.489934921E0
1.761525300E-2,-5.509474277E-1,1.086939692E0,9.509077072E0
1.985164200E-2,-5.318048596E-1,1.091127157E0,9.523433685E0
2.208803100E-2,-5.461617708E-1,1.076770186E0,9.537791252E0
2.431801500E-2,-5.365904570E-1,1.076770186E0,9.528220177E0
2.655458800E-2,-5.467599630E-1,1.071984529E0,9.556933403E0
2.879427300E-2,-5.222335458E-1,1.081555843E0,9.552147865E0
3.102846400E-2,-5.365904570E-1,1.095912814E0,9.528220177E0
3.326393800E-2,-5.318048596E-1,1.095912814E0,9.537791252E0
3.550136500E-2,-5.365904570E-1,1.091127157E0,9.537791252E0
3.773781500E-2,-5.174478889E-1,1.095912814E0,9.547362328E0
3.997377700E-2,-4.983053207E-1,1.080957651E0,9.567103386E0
4.220949500E-2,-4.791627228E-1,1.089930773E0,9.557532310E0
4.444606700E-2,-4.552344978E-1,1.080359459E0,9.562317848E0
4.668233400E-2,-4.366901219E-1,1.041476011E0,9.586843491E0
4.891988300E-2,-4.366901219E-1,1.074975610E0,9.600603104E0
5.115547900E-2,-4.127618968E-1,1.064806104E0,9.639486313E0
5.339205100E-2,-4.037888348E-1,1.040877819E0,9.663414001E0
5.563045400E-2,-3.804588020E-1,1.016351461E0,9.692128181E0
5.786611100E-2,-3.858426511E-1,1.011565804E0,9.735198975E0
6.010042500E-2,-3.619144261E-1,1.006181955E0,9.759127617E0
6.233638600E-2,-3.529413342E-1,9.816554785E-1,9.797411919E0
6.457314200E-2,-3.678964674E-1,1.000798106E0,9.835099220E0
6.681117900E-2,-3.822534084E-1,9.822536707E-1,9.863813400E0
6.904634800E-2,-3.924229145E-1,9.870393276E-1,9.887741089E0
7.128603300E-2,-3.822534084E-1,9.960124493E-1,9.897313118E0
7.353346900E-2,-3.924229145E-1,9.918249846E-1,9.906285286E0
7.577016300E-2,-3.732803464E-1,1.000798106E0,9.911669731E0
7.800661300E-2,-3.780659735E-1,9.960124493E-1,9.939785004E0
8.024013400E-2,-3.643072546E-1,9.625129104E-1,9.935597420E0
8.247695100E-2,-3.637090325E-1,9.816554785E-1,9.911669731E0
8.471395000E-2,-3.684946895E-1,9.960124493E-1,9.911669731E0
8.694930200E-2,-3.924229145E-1,9.816554785E-1,9.920642853E0
8.918556900E-2,-3.930211067E-1,9.720842242E-1,9.934999466E0
9.142171400E-2,-4.163511395E-1,9.822536707E-1,9.906285286E0
9.365859100E-2,-4.163511395E-1,9.726824164E-1,9.877572060E0
9.589510300E-2,-4.211367965E-1,9.780662656E-1,9.877572060E0
9.812837900E-2,-4.444667995E-1,9.780662656E-1,9.853643417E0
1.003565890E-1,-4.588237405E-1,9.738788009E-1,9.829715729E0
1.026052470E-1,-4.971089065E-1,9.888339639E-1,9.833903313E0
1.048404760E-1,-5.024927258E-1,9.649057388E-1,9.838688850E0
1.070801000E-1,-5.114658475E-1,9.840483069E-1,9.824331284E0
1.093139870E-1,-5.204389095E-1,9.942178130E-1,9.781260490E0
1.115500710E-1,-5.347958803E-1,9.942178130E-1,9.786046028E0
1.137876810E-1,-5.443671346E-1,9.990034699E-1,9.771689415E0
1.160223000E-1,-5.389832854E-1,1.009172916E0,9.738189697E0
1.182592380E-1,-5.629115105E-1,1.028315544E0,9.723833084E0
1.204962990E-1,-5.724828243E-1,1.019342422E0,9.719047546E0
1.227317730E-1,-5.766702294E-1,1.048056364E0,9.723235130E0
1.249681620E-1,-5.814558864E-1,1.052842021E0,9.718449593E0
1.272043680E-1,-5.958128572E-1,1.052842021E0,9.718449593E0
1.294410010E-1,-6.005984545E-1,1.057627559E0,9.747162819E0
1.316773900E-1,-6.101697683E-1,1.052842021E0,9.728020668E0
1.339139020E-1,-6.011967063E-1,1.043270707E0,9.737591743E0
1.361505350E-1,-6.203392744E-1,1.043868899E0,9.737591743E0
1.383877780E-1,-6.005984545E-1,1.038485050E0,9.713663101E0
1.406228860E-1,-6.011967063E-1,1.033699393E0,9.713663101E0
1.428594580E-1,-5.868397355E-1,1.028913736E0,9.718449593E0
1.450955420E-1,-5.766702294E-1,1.043270707E0,9.723235130E0
1.473315650E-1,-5.910272002E-1,1.048056364E0,9.713663101E0
1.495622780E-1,-5.868397355E-1,1.028913736E0,9.718449593E0
1.517931130E-1,-5.910272002E-1,1.033699393E0,9.699306488E0
1.540418310E-1,-5.916253924E-1,1.019342422E0,9.704092026E0
1.562797460E-1,-5.868397355E-1,1.019342422E0,9.699904442E0
1.585172330E-1,-5.670989752E-1,1.024128079E0,9.685547829E0
1.607505710E-1,-5.629115105E-1,9.996016622E-1,9.704689980E0
1.629869000E-1,-5.581258535E-1,1.018744230E0,9.714262009E0
1.652235330E-1,-5.629115105E-1,9.996016622E-1,9.699904442E0
1.674601050E-1,-5.629115105E-1,1.004387259E0,9.723833084E0
1.696963720E-1,-5.437689424E-1,9.948160052E-1,9.704689980E0
1.719330050E-1,-5.533402562E-1,1.004387259E0,9.699904442E0
1.741702490E-1,-5.533402562E-1,1.004387259E0,9.709476471E0
1.764053570E-1,-5.485545993E-1,9.948160052E-1,9.699904442E0
1.786412570E-1,-5.156532526E-1,9.702895880E-1,9.686145782E0
1.808792340E-1,-5.252245665E-1,9.661021233E-1,9.686145782E0
1.831148290E-1,-5.006981492E-1,9.702895880E-1,9.667003632E0
1.853514620E-1,-5.252245665E-1,9.756734371E-1,9.690931320E0
1.875846170E-1,-5.054838061E-1,9.798609018E-1,9.690931320E0
1.898128270E-1,-5.108676553E-1,9.750752449E-1,9.710074425E0
1.920613620E-1,-5.066801906E-1,9.559326172E-1,9.734002113E0
1.942967140E-1,-5.066801906E-1,9.463613629E-1,9.762716293E0
1.965361540E-1,-4.827519655E-1,9.314061999E-1,9.753145218E0
1.987694310E-1,-4.689932466E-1,9.266205430E-1,9.772287369E0
2.010062480E-1,-4.594219327E-1,9.212366939E-1,9.777072906E0
2.032425150E-1,-4.642075896E-1,9.164510965E-1,9.781859398E0
2.054788430E-1,-4.307080805E-1,9.068797827E-1,9.758528709E0
2.077124850E-1,-4.265206456E-1,8.823533654E-1,9.787242889E0
2.099410010E-1,-4.259224236E-1,8.925228715E-1,9.768099785E0
2.121880710E-1,-4.265206456E-1,8.638089895E-1,9.758528709E0
2.144234840E-1,-4.169493318E-1,8.638089895E-1,9.744172096E0
2.166597510E-1,-4.211367965E-1,8.829515576E-1,9.729815483E0
2.188973000E-1,-4.073780477E-1,8.398807645E-1,9.725627899E0
2.211336890E-1,-4.169493318E-1,8.350951076E-1,9.734601021E0
2.233711150E-1,-4.169493318E-1,8.255237937E-1,9.696913719E0
2.256065890E-1,-4.271188378E-1,8.015955687E-1,9.687342644E0
2.278440770E-1,-4.313062727E-1,8.159525394E-1,9.682557106E0
2.300791850E-1,-4.360919297E-1,8.117650747E-1,9.677771568E0
2.323130100E-1,-4.313062727E-1,8.165507317E-1,9.668199539E0
2.345376810E-1,-4.217349887E-1,8.207381964E-1,9.663414001E0
2.367770000E-1,-4.211367965E-1,8.213363886E-1,9.639486313E0
2.390249860E-1,-4.211367965E-1,8.309076428E-1,9.615557671E0
2.412641820E-1,-4.019941986E-1,8.159525394E-1,9.629914284E0
2.435021580E-1,-3.972085714E-1,8.207381964E-1,9.611370087E0
2.457396460E-1,-3.774677813E-1,8.398807645E-1,9.587442398E0
2.479707860E-1,-3.918247223E-1,8.255237937E-1,9.568299294E0
2.502071140E-1,-3.774677813E-1,8.398807645E-1,9.563513756E0
2.524430760E-1,-3.822534084E-1,8.255237937E-1,9.530014038E0
2.546797710E-1,-3.822534084E-1,8.350951076E-1,9.530014038E0
2.569164040E-1,-3.870390654E-1,8.213363886E-1,9.501300812E0
2.591524270E-1,-4.157529473E-1,8.219345808E-1,9.506086349E0
2.613893040E-1,-4.247260094E-1,8.458628058E-1,9.506086349E0
2.636264870E-1,-4.390829504E-1,8.506484628E-1,9.491728783E0
2.658616550E-1,-4.486542344E-1,8.416753411E-1,9.463015556E0
2.680982280E-1,-4.671986103E-1,8.608179688E-1,9.462417603E0
2.703343120E-1,-4.767699242E-1,8.757730722E-1,9.438488960E0
2.725711890E-1,-4.719842672E-1,8.799605370E-1,9.462417603E0
2.748075170E-1,-4.767699242E-1,8.895317912E-1,9.467203140E0
2.770440890E-1,-4.911268353E-1,8.757730722E-1,9.481559753E0
2.792806010E-1,-4.863412082E-1,8.895317912E-1,9.505488396E0
2.815186980E-1,-4.671986103E-1,9.038887620E-1,9.515059471E0
2.837571630E-1,-4.582255483E-1,8.889335990E-1,9.538987160E0
2.859895850E-1,-4.534398913E-1,8.937192559E-1,9.548559189E0
2.882256690E-1,-4.438686073E-1,8.937192559E-1,9.572486877E0
2.904612640E-1,-4.492524564E-1,8.650053740E-1,9.586843491E0
2.926987530E-1,-4.013960063E-1,8.590233326E-1,9.586843491E0
2.949349590E-1,-4.109672904E-1,8.638089895E-1,9.615557671E0
2.971720190E-1,-3.870390654E-1,8.685946465E-1,9.629914284E0
2.994090190E-1,-3.732803464E-1,8.536394835E-1,9.672985077E0
3.016444310E-1,-3.643072546E-1,8.297112584E-1,9.692726135E0
3.038807590E-1,-3.834498227E-1,8.249256015E-1,9.711270332E0
3.061172710E-1,-3.930211067E-1,8.440681696E-1,9.720842361E0
3.083536600E-1,-3.882354796E-1,8.392825127E-1,9.754341125E0
3.105880350E-1,-3.930211067E-1,8.488538265E-1,9.763913155E0
3.128176490E-1,-4.031906128E-1,8.344969153E-1,9.782457352E0
3.150631320E-1,-4.031906128E-1,8.344969153E-1,9.782457352E0
3.173003760E-1,-3.984049559E-1,8.153542876E-1,9.787242889E0
3.195379250E-1,-3.936193287E-1,8.201399446E-1,9.792028427E0
3.217723610E-1,-3.792623878E-1,8.482556343E-1,9.787840843E0
3.240093610E-1,-3.888336718E-1,8.392825127E-1,9.787840843E0
3.262449560E-1,-3.792623878E-1,8.338986635E-1,9.787840843E0
3.284812840E-1,-3.792623878E-1,8.147560954E-1,9.792626381E0
3.307173070E-1,-3.696911037E-1,8.243274093E-1,9.778269768E0
3.329511940E-1,-3.744767308E-1,8.243274093E-1,9.778269768E0
3.351795880E-1,-3.936193287E-1,8.249256015E-1,9.749555588E0
3.374270850E-1,-4.031906128E-1,8.201399446E-1,9.763913155E0
3.396625580E-1,-4.121637046E-1,8.303094506E-1,9.739984512E0
3.418998020E-1,-4.319044948E-1,7.920243144E-1,9.696913719E0
3.441360080E-1,-4.929214716E-1,7.136593461E-1,9.381659508E0
3.463721540E-1,-4.725824594E-1,7.088736892E-1,9.224330902E0
3.486054900E-1,-4.001995921E-1,7.555337548E-1,9.263215065E0
3.508338840E-1,-3.481557071E-1,7.686942816E-1,9.392427444E0
3.530801000E-1,-3.924229145E-1,7.782655358E-1,9.534799576E0
3.553072730E-1,-4.701896608E-1,7.692924738E-1,9.625128746E0
3.575580670E-1,-5.282155871E-1,7.316055298E-1,9.653244972E0
3.597900610E-1,-6.101697683E-1,7.088736892E-1,9.685547829E0
3.620182710E-1,-6.107679605E-1,7.040880919E-1,9.714262009E0
3.642638160E-1,-5.730810165E-1,6.981059909E-1,9.790832520E0
3.664997770E-1,-5.198407173E-1,7.262216806E-1,9.786644936E0
3.687399510E-1,-4.331009090E-1,7.250252366E-1,9.763314247E0
3.709742040E-1,-3.804588020E-1,7.483552694E-1,9.759127617E0
3.732093120E-1,-3.708875179E-1,7.525427341E-1,9.797411919E0
3.754461890E-1,-3.804588020E-1,7.812566161E-1,9.816555023E0
3.776801980E-1,-4.187439680E-1,7.722834945E-1,9.830313683E0
3.799068820E-1,-4.336991012E-1,7.393822074E-1,9.820742607E0
3.821551120E-1,-4.432703853E-1,7.345965505E-1,9.849455833E0
3.843911360E-1,-4.480560422E-1,7.633104324E-1,9.858428955E0
3.866310040E-1,-4.384847581E-1,7.674978375E-1,9.863813400E0
3.888653180E-1,-4.480560422E-1,7.579265833E-1,9.887143135E0
3.911006690E-1,-4.295116663E-1,7.435696125E-1,9.902098656E0
3.933373020E-1,-4.151547253E-1,7.477570772E-1,9.911669731E0
3.955742400E-1,-4.103690982E-1,7.334001660E-1,9.906884193E0
3.978097140E-1,-4.007977843E-1,7.286145091E-1,9.916455269E0
4.000465310E-1,-3.960121572E-1,7.334001660E-1,9.906884193E0
4.022825540E-1,-3.960121572E-1,7.381857634E-1,9.882955551E0
4.045194920E-1,-3.768695593E-1,7.286145091E-1,9.878767967E0
4.067567360E-1,-3.762713671E-1,7.429714203E-1,9.859625816E0
4.089922710E-1,-3.667000830E-1,7.567301393E-1,9.864411354E0
4.112284160E-1,-3.858426511E-1,7.716853023E-1,9.878170013E0
4.134646220E-1,-4.145565331E-1,7.764709592E-1,9.921240807E0
4.157014380E-1,-4.001995921E-1,7.812566161E-1,9.897313118E0
4.179395360E-1,-3.906283081E-1,7.956135273E-1,9.906884193E0
4.201739110E-1,-3.762713671E-1,8.045865893E-1,9.930811882E0
4.224107890E-1,-3.619144261E-1,7.854440212E-1,9.945169449E0
4.246473610E-1,-3.565305769E-1,8.183453679E-1,9.949954987E0
4.268834450E-1,-3.421736360E-1,8.039883971E-1,9.921838760E0
4.291197730E-1,-3.373879790E-1,8.087740541E-1,9.912267685E0
4.313560400E-1,-3.326023519E-1,8.039883971E-1,9.926624298E0
4.335923680E-1,-3.278166950E-1,8.087740541E-1,9.878767967E0
4.358289410E-1,-3.373879790E-1,7.998009920E-1,9.869196892E0
4.380652080E-1,-3.559323549E-1,8.189435601E-1,9.859625816E0
4.403019020E-1,-3.702892959E-1,8.195417523E-1,9.811769485E0
4.425371320E-1,-3.409772217E-1,8.380861282E-1,9.783055305E0
4.447668680E-1,-3.260220885E-1,8.428717852E-1,9.750154495E0
4.470125950E-1,-3.451646566E-1,8.434699774E-1,9.754341125E0
4.492471540E-1,-3.595215976E-1,8.530412912E-1,9.759127617E0
4.514857400E-1,-3.403790295E-1,8.434699774E-1,9.740582466E0
4.537196880E-1,-3.547359705E-1,8.530412912E-1,9.730413437E0
4.559566260E-1,-3.499503136E-1,8.482556343E-1,9.739984512E0
4.581932590E-1,-3.493520916E-1,8.673982024E-1,9.730413437E0
4.604306250E-1,-3.355933726E-1,8.434699774E-1,9.726225853E0
4.626660990E-1,-3.206382394E-1,8.668000102E-1,9.726225853E0
4.649024270E-1,-3.254238665E-1,8.763712645E-1,9.735796928E0
4.671392430E-1,-3.206382394E-1,8.763712645E-1,9.721440315E0
4.693750830E-1,-2.871387303E-1,8.757730722E-1,9.735796928E0
4.716116550E-1,-3.068794906E-1,8.476574421E-1,9.716654778E0
4.738475560E-1,-2.967100143E-1,8.620143533E-1,9.735796928E0
4.760845560E-1,-3.116651475E-1,8.668000102E-1,9.745368004E0
4.783215550E-1,-2.919243574E-1,8.757730722E-1,9.754940033E0
4.805535500E-1,-3.020938635E-1,8.566305041E-1,9.774082184E0
4.827796850E-1,-3.308077157E-1,8.572286963E-1,9.773484230E0
4.850298680E-1,-3.218346536E-1,8.572286963E-1,9.811769485E0
4.872662570E-1,-3.170489967E-1,8.572286963E-1,9.807581902E0
4.895062480E-1,-3.122633696E-1,8.476574421E-1,9.788438797E0
4.917390360E-1,-3.170489967E-1,8.524430394E-1,9.807581902E0
4.939757910E-1,-3.020938635E-1,8.709874153E-1,9.807581902E0
4.962132180E-1,-3.020938635E-1,8.709874153E-1,9.821938515E0
4.984483250E-1,-3.122633696E-1,8.422735929E-1,9.817152977E0
5.006847140E-1,-3.074777126E-1,8.470591903E-1,9.817152977E0
5.029209820E-1,-3.170489967E-1,8.189435601E-1,9.802796364E0
5.051577980E-1,-3.314059377E-1,8.333004713E-1,9.806983948E0
5.073939430E-1,-3.601198196E-1,8.291130662E-1,9.797411919E0
5.096274020E-1,-3.601198196E-1,8.195417523E-1,9.792626381E0
5.118518890E-1,-3.409772217E-1,8.285148144E-1,9.811769485E0
5.140896820E-1,-3.463610709E-1,8.093722463E-1,9.792626381E0
5.163277810E-1,-3.463610709E-1,8.093722463E-1,9.797411919E0
5.185793070E-1,-3.367897868E-1,7.902296782E-1,9.774082184E0
5.208150240E-1,-3.559323549E-1,7.716853023E-1,9.778269768E0
5.230519010E-1,-3.463610709E-1,7.716853023E-1,9.759725571E0
5.252851170E-1,-3.511467278E-1,7.573283911E-1,9.731011391E0
5.275213230E-1,-3.553341627E-1,7.668996453E-1,9.707083702E0
5.297581400E-1,-3.696911037E-1,7.674978375E-1,9.697511673E0
5.319954440E-1,-3.798605800E-1,7.722834945E-1,9.730413437E0
5.342309180E-1,-3.696911037E-1,7.722834945E-1,9.711869240E0
5.364676730E-1,-3.798605800E-1,7.483552694E-1,9.706484795E0
5.387044290E-1,-4.085744619E-1,7.441678643E-1,9.711270332E0
5.409400860E-1,-4.181457460E-1,7.585247755E-1,9.706484795E0
5.431765970E-1,-4.325026870E-1,7.633104324E-1,9.706484795E0
5.454126810E-1,-4.229314029E-1,7.489534616E-1,9.701699257E0
5.476466280E-1,-4.468596280E-1,7.447660565E-1,9.701699257E0
5.498750830E-1,-4.372883439E-1,7.304090858E-1,9.682557106E0
5.521221530E-1,-4.229314029E-1,7.585247755E-1,9.720842361E0
5.543584820E-1,-4.031906128E-1,7.968099117E-1,9.706484795E0
5.565974340E-1,-3.888336718E-1,7.866404653E-1,9.739984512E0
5.588311380E-1,-3.936193287E-1,8.057830334E-1,9.749555588E0
5.610677710E-1,-4.127618968E-1,8.111668825E-1,9.744770050E0
5.633042820E-1,-4.325026870E-1,8.159525394E-1,9.792028427E0
5.655406710E-1,-4.325026870E-1,8.159525394E-1,9.792028427E0
5.677780980E-1,-4.564309120E-1,8.111668825E-1,9.777671814E0
5.700139990E-1,-4.654040039E-1,8.350951076E-1,9.796216011E0
5.722499000E-1,-4.468596280E-1,8.159525394E-1,9.801599503E0
5.744859230E-1,-4.516452849E-1,7.968099117E-1,9.806385040E0
5.767223120E-1,-4.277170599E-1,8.009973764E-1,9.811170578E0
5.789588840E-1,-4.181457460E-1,8.009973764E-1,9.801599503E0
5.811957010E-1,-4.229314029E-1,8.153542876E-1,9.820742607E0
5.834322730E-1,-4.181457460E-1,8.201399446E-1,9.806385040E0
5.856693340E-1,-3.942175210E-1,8.195417523E-1,9.844670296E0
5.879045630E-1,-3.942175210E-1,8.243274093E-1,9.820742607E0
5.901409520E-1,-3.990031779E-1,8.105686903E-1,9.825528145E0
5.923773420E-1,-3.900300860E-1,7.860422134E-1,9.830313683E0
5.946140970E-1,-3.756731451E-1,7.668996453E-1,9.840482712E0
5.968502420E-1,-3.900300860E-1,7.860422134E-1,9.835099220E0
5.990868140E-1,-3.756731451E-1,7.812566161E-1,9.826126099E0
6.013235690E-1,-3.607180119E-1,8.045865893E-1,9.845269203E0
6.035606300E-1,-3.661018610E-1,7.860422134E-1,9.826126099E0
6.057956760E-1,-3.421736360E-1,7.854440212E-1,9.826126099E0
6.080294410E-1,-3.613162339E-1,7.716853023E-1,9.792626381E0
6.102581400E-1,-3.559323549E-1,7.812566161E-1,9.797411919E0
6.125052710E-1,-3.511467278E-1,7.908278704E-1,9.778269768E0
6.147386080E-1,-3.511467278E-1,7.812566161E-1,9.778269768E0
6.169685270E-1,-3.607180119E-1,7.812566161E-1,9.749555588E0
6.192147440E-1,-3.702892959E-1,7.764709592E-1,9.744770050E0
6.214520480E-1,-3.798605800E-1,7.579265833E-1,9.716055870E0
6.236903300E-1,-3.607180119E-1,7.477570772E-1,9.731011391E0
6.259233620E-1,-3.702892959E-1,7.339983582E-1,9.711869240E0
6.281594460E-1,-3.942175210E-1,7.435696125E-1,9.730413437E0
6.303962620E-1,-3.846462369E-1,7.531409264E-1,9.739984512E0
6.326326520E-1,-4.043870270E-1,7.387840152E-1,9.744770050E0
6.348690410E-1,-3.948157430E-1,7.244270444E-1,9.763913155E0
6.371058570E-1,-4.139583111E-1,7.387840152E-1,9.768698692E0
6.393431620E-1,-4.091726840E-1,7.244270444E-1,9.759127617E0
6.415781470E-1,-4.043870270E-1,7.339983582E-1,9.778269768E0
6.438098980E-1,-3.954139352E-1,7.339983582E-1,9.797411919E0
6.460371930E-1,-3.948157430E-1,7.435696125E-1,9.792626381E0
6.482876810E-1,-3.804588020E-1,7.429714203E-1,9.797411919E0
6.505244360E-1,-4.001995921E-1,7.292127013E-1,9.783055305E0
6.527639990E-1,-3.948157430E-1,7.435696125E-1,9.783055305E0
6.549969090E-1,-3.708875179E-1,7.381857634E-1,9.778269768E0
6.572342750E-1,-3.900300860E-1,7.292127013E-1,9.768698692E0
6.594698100E-1,-3.661018610E-1,7.334001660E-1,9.759127617E0
6.617062600E-1,-3.613162339E-1,7.286145091E-1,9.763913155E0
6.639425270E-1,-3.661018610E-1,7.334001660E-1,9.759127617E0
6.661789770E-1,-3.756731451E-1,7.148557901E-1,9.735198975E0
6.684151220E-1,-3.661018610E-1,7.286145091E-1,9.759127617E0
6.706516330E-1,-3.708875179E-1,7.292127013E-1,9.749555588E0
6.728852150E-1,-3.661018610E-1,7.004988194E-1,9.731011391E0
6.751134250E-1,-3.714857101E-1,6.957131624E-1,9.735796928E0
6.773609840E-1,-3.762713671E-1,6.717849374E-1,9.749555588E0
6.795978000E-1,-3.858426511E-1,6.861419082E-1,9.763913155E0
6.818375460E-1,-4.001995921E-1,6.813562512E-1,9.744770050E0
6.840699680E-1,-4.001995921E-1,6.717849374E-1,9.739984512E0
6.863066630E-1,-3.912265003E-1,6.669993401E-1,9.759127617E0
6.885426250E-1,-4.103690982E-1,6.717849374E-1,9.763913155E0
6.907799900E-1,-3.912265003E-1,6.717849374E-1,9.768698692E0
6.930169290E-1,-3.912265003E-1,6.526423693E-1,9.749555588E0
6.952524020E-1,-4.103690982E-1,6.622136831E-1,9.768698692E0
6.974887920E-1,-3.960121572E-1,6.669993401E-1,9.783055305E0
6.997217020E-1,-4.007977843E-1,6.669993401E-1,9.787840843E0
7.019495460E-1,-4.055834413E-1,6.622136831E-1,9.759127617E0
7.041977760E-1,-4.247260094E-1,6.819544435E-1,9.782457352E0
7.064342260E-1,-4.103690982E-1,6.861419082E-1,9.783055305E0
7.086739720E-1,-4.199403822E-1,7.004988194E-1,9.806385040E0
7.109081030E-1,-4.049852192E-1,6.909275651E-1,9.787840843E0
7.131436990E-1,-4.151547253E-1,6.909275651E-1,9.787840843E0
7.153799050E-1,-4.241278172E-1,7.100701332E-1,9.801599503E0
7.176151950E-1,-4.151547253E-1,6.957131624E-1,9.796813965E0
7.198474340E-1,-4.049852192E-1,7.052844763E-1,9.778269768E0
7.220782690E-1,-4.139583111E-1,7.202396393E-1,9.763913155E0
7.243258280E-1,-4.145565331E-1,6.861419082E-1,9.773484230E0
7.265627660E-1,-4.432703853E-1,7.058826685E-1,9.758528709E0
7.288031840E-1,-4.624129832E-1,7.064808607E-1,9.739386559E0
7.310359720E-1,-4.576273263E-1,6.681957245E-1,9.710672379E0
7.332567360E-1,-4.767699242E-1,6.783652306E-1,9.701101303E0
7.354957500E-1,-4.767699242E-1,6.831508875E-1,9.701101303E0
7.377401950E-1,-4.719842672E-1,6.640082598E-1,9.691530228E0
7.399712130E-1,-5.006981492E-1,6.687939167E-1,9.672387123E0
7.422195650E-1,-5.341976285E-1,6.789634228E-1,9.676574707E0
7.444533910E-1,-5.437689424E-1,6.556333899E-1,9.667003632E0
7.466910620E-1,-5.485545993E-1,6.652047038E-1,9.667003632E0
7.489161600E-1,-5.341976285E-1,6.604190469E-1,9.653244972E0
7.511626810E-1,-5.479564071E-1,6.699903607E-1,9.643074989E0
7.533995580E-1,-5.533402562E-1,6.556333899E-1,9.671789169E0
7.556378390E-1,-5.533402562E-1,6.795616150E-1,9.676574707E0
7.578716650E-1,-5.533402562E-1,6.795616150E-1,9.671789169E0
7.601078100E-1,-5.575276613E-1,6.843472719E-1,9.652647018E0
7.623448100E-1,-5.575276613E-1,6.747759581E-1,9.643074989E0
7.645818700E-1,-5.575276613E-1,6.747759581E-1,9.657432556E0
7.668172220E-1,-5.670989752E-1,7.082754970E-1,9.652647018E0
7.690535500E-1,-5.473581553E-1,7.226324677E-1,9.667003632E0
7.712898780E-1,-5.186443329E-1,7.220342159E-1,9.653244972E0
7.735264500E-1,-5.138586760E-1,7.507480979E-1,9.662816048E0
7.757598480E-1,-5.042873621E-1,7.363911867E-1,9.643673897E0
7.779873880E-1,-4.851447940E-1,7.453642488E-1,9.653244972E0
7.802359840E-1,-4.797609448E-1,7.692924738E-1,9.667601585E0
7.824732890E-1,-4.319044948E-1,7.639086246E-1,9.682557106E0
7.847116310E-1,-4.271188378E-1,7.776673436E-1,9.682557106E0
7.869452130E-1,-4.181457460E-1,7.441678643E-1,9.663414001E0
7.891812360E-1,-3.990031779E-1,7.489534616E-1,9.677771568E0
7.914178690E-1,-3.888336718E-1,7.633104324E-1,9.672985077E0
7.936543800E-1,-3.702892959E-1,7.483552694E-1,9.687940598E0
7.958907080E-1,-3.607180119E-1,7.339983582E-1,9.687940598E0
7.981272800E-1,-3.320041299E-1,7.477570772E-1,9.678369522E0
8.003643410E-1,-3.128615618E-1,7.567301393E-1,9.692726135E0
8.025999370E-1,-3.032902777E-1,7.471588850E-1,9.726225853E0
8.048362650E-1,-2.841476798E-1,7.423732281E-1,9.717252731E0
8.070723490E-1,-2.943171859E-1,7.465606928E-1,9.754940033E0
8.093089210E-1,-2.841476798E-1,7.657032609E-1,9.750752449E0
8.115454930E-1,-2.410768867E-1,7.651050687E-1,9.741181374E0
8.137788910E-1,-2.362912297E-1,7.603194118E-1,9.736394882E0
8.160067970E-1,-2.410768867E-1,7.651050687E-1,9.745966911E0
8.182559430E-1,-2.129612118E-1,7.501499057E-1,9.779465675E0
8.204911110E-1,-2.075773627E-1,7.692924738E-1,9.798608780E0
8.227308570E-1,-2.027917206E-1,7.788637877E-1,9.812965393E0
8.249646830E-1,-1.884347796E-1,7.782655358E-1,9.794421196E0
8.272005230E-1,-1.740778536E-1,7.926225066E-1,9.789635658E0
8.294366680E-1,-1.686939895E-1,8.069794178E-1,9.775279045E0
8.316731790E-1,-1.543370634E-1,8.021938205E-1,9.794421196E0
8.339097510E-1,-1.734796464E-1,7.926225066E-1,9.765707016E0
8.361471170E-1,-1.591227055E-1,7.878368497E-1,9.746564865E0
8.383823460E-1,-1.639083475E-1,7.830511928E-1,9.727422714E0
8.406187970E-1,-1.734796464E-1,7.836494446E-1,9.722636223E0
8.428523170E-1,-1.872383654E-1,8.123632669E-1,9.698708534E0
8.450806500E-1,-1.824527234E-1,8.027920127E-1,9.703494072E0
8.473279640E-1,-1.968096644E-1,7.986045480E-1,9.655637741E0
8.495642920E-1,-1.866401732E-1,8.033902049E-1,9.641879082E0
8.518038540E-1,-2.063809484E-1,7.986045480E-1,9.636494637E0
8.540381690E-1,-2.303091735E-1,7.800601721E-1,9.612566948E0
8.562735210E-1,-2.303091735E-1,7.944171429E-1,9.631709099E0
8.585098490E-1,-2.440679073E-1,7.992027402E-1,9.602995872E0
8.607462380E-1,-2.392822653E-1,8.087740541E-1,9.617352486E0
8.629830540E-1,-2.482553422E-1,8.327022791E-1,9.602995872E0
8.652193820E-1,-2.434697002E-1,8.422735929E-1,9.598209381E0
8.674556500E-1,-2.482553422E-1,8.327022791E-1,9.602995872E0
8.696922220E-1,-2.536391914E-1,8.374879360E-1,9.626923561E0
8.719295270E-1,-2.626122832E-1,8.380861282E-1,9.607781410E0
8.741648780E-1,-2.769692242E-1,8.380861282E-1,9.597611427E0
8.764012060E-1,-2.632105052E-1,8.333004713E-1,9.612566948E0
8.786333830E-1,-2.673979402E-1,8.524430394E-1,9.597611427E0
8.808573220E-1,-2.769692242E-1,8.572286963E-1,9.621540070E0
8.831058570E-1,-2.769692242E-1,8.476574421E-1,9.635896683E0
8.853470680E-1,-2.967100143E-1,8.524430394E-1,9.650253296E0
8.875845550E-1,-2.721835673E-1,8.668000102E-1,9.655039787E0
8.898100800E-1,-2.919243574E-1,8.333004713E-1,9.669396400E0
8.920559910E-1,-3.158525825E-1,8.530412912E-1,9.683155060E0
8.942928690E-1,-3.068794906E-1,8.428717852E-1,9.726225853E0
8.965327970E-1,-3.164508045E-1,8.285148144E-1,9.721440315E0
8.987652810E-1,-2.967100143E-1,8.572286963E-1,9.726225853E0
9.010018530E-1,-3.068794906E-1,8.620143533E-1,9.769296646E0
9.032380590E-1,-2.973082066E-1,8.518448472E-1,9.764511108E0
9.054747530E-1,-2.925225794E-1,8.422735929E-1,9.778867722E0
9.077090670E-1,-2.973082066E-1,8.566305041E-1,9.783653259E0
9.099355690E-1,-2.973082066E-1,8.614161611E-1,9.788438797E0
9.121837380E-1,-2.883351147E-1,8.422735929E-1,9.798010826E0
9.144200050E-1,-2.925225794E-1,8.709874153E-1,9.798010826E0
9.166595680E-1,-3.068794906E-1,8.662018180E-1,9.817152977E0
9.188932110E-1,-3.170489967E-1,8.470591903E-1,9.830911636E0
9.211295390E-1,-3.212364316E-1,8.668000102E-1,9.816555023E0
9.233663550E-1,-3.218346536E-1,8.709874153E-1,9.854840279E0
9.256034160E-1,-3.266202807E-1,8.662018180E-1,9.869196892E0
9.278389500E-1,-3.511467278E-1,8.476574421E-1,9.859625816E0
9.300750340E-1,-3.511467278E-1,8.524430394E-1,9.878767967E0
9.323113630E-1,-3.942175210E-1,8.578268886E-1,9.873384476E0
9.345478740E-1,-3.846462369E-1,8.434699774E-1,9.854242325E0
9.367842630E-1,-3.984049559E-1,8.578268886E-1,9.849455833E0
9.390205910E-1,-4.181457460E-1,8.297112584E-1,9.854242325E0
9.412574680E-1,-4.133601189E-1,8.249256015E-1,9.849455833E0
9.434947120E-1,-4.325026870E-1,8.249256015E-1,9.825528145E0
9.457267060E-1,-4.420739710E-1,8.350951076E-1,9.830313683E0
9.479536960E-1,-4.707878530E-1,8.159525394E-1,9.810572624E0
9.502024150E-1,-4.707878530E-1,8.213363886E-1,9.801001549E0
9.524390480E-1,-4.755735099E-1,8.117650747E-1,9.786644936E0
9.546785500E-1,-4.899304509E-1,8.069794178E-1,9.796216011E0
9.569119480E-1,-5.138586760E-1,8.027920127E-1,9.777072906E0
9.591486430E-1,-5.090730190E-1,7.836494446E-1,9.767501831E0
9.613861910E-1,-5.234299302E-1,7.836494446E-1,9.772287369E0
9.636214210E-1,-5.096712112E-1,7.549355626E-1,9.777072906E0
9.658578100E-1,-5.096712112E-1,7.740781307E-1,9.777072906E0
9.680947490E-1,-4.953143001E-1,7.591229677E-1,9.796216011E0
9.703304050E-1,-4.953143001E-1,7.543373108E-1,9.791430473E0
9.725670390E-1,-4.863412082E-1,7.304090858E-1,9.781859398E0
9.748033670E-1,-4.767699242E-1,7.351947427E-1,9.796216011E0
9.770398170E-1,-4.576273263E-1,7.441678643E-1,9.801599503E0
9.792762670E-1,-4.480560422E-1,7.345965505E-1,9.806385040E0
9.815127170E-1,-4.480560422E-1,7.345965505E-1,9.815957069E0
9.837491670E-1,-4.193421602E-1,7.292127013E-1,9.796813965E0
9.859856170E-1,-4.241278172E-1,7.244270444E-1,9.820742607E0
9.882220670E-1,-4.001995921E-1,7.339983582E-1,9.801599503E0
9.904459450E-1,-3.810569942E-1,7.238288522E-1,9.797411919E0
9.926828220E-1,-3.714857101E-1,7.286145091E-1,9.792626381E0
9.949195780E-1,-3.523431420E-1,7.238288522E-1,9.778269768E0
9.971566380E-1,-3.278166950E-1,7.184450030E-1,9.759725571E0
9.993920510E-1,-3.182454109E-1,7.184450030E-1,9.764511108E0
1.001628806E0,-2.991028428E-1,7.369893789E-1,9.774082184E0
1.003864951E0,-2.991028428E-1,7.369893789E-1,9.778867722E0
1.006104698E0,-2.703889608E-1,7.465606928E-1,9.769894600E0
1.008352562E0,-2.757728100E-1,7.130611539E-1,9.774680138E0
1.010588646E0,-2.757728100E-1,7.178468108E-1,9.789037704E0
1.012822349E0,-2.656033039E-1,7.459624410E-1,9.793823242E0
1.015048118E0,-2.608176768E-1,7.268198729E-1,9.774680138E0
1.017295066E0,-2.560320199E-1,7.316055298E-1,9.769894600E0
1.019531638E0,-2.608176768E-1,7.322037220E-1,9.755537987E0
1.021770529E0,-2.416750938E-1,7.459624410E-1,9.760323524E0
1.024004234E0,-2.410768867E-1,7.555337548E-1,9.745966911E0
1.026240562E0,-2.554338276E-1,7.513462901E-1,9.717252731E0
1.028477134E0,-2.362912297E-1,7.411768436E-1,9.713065147E0
1.030713828E0,-2.691925466E-1,7.704889178E-1,9.683753014E0
1.032948386E0,-2.787638307E-1,7.710871100E-1,9.664610863E0
1.035174705E0,-2.787638307E-1,7.615157962E-1,9.635896683E0
1.037423240E0,-3.122633696E-1,7.381857634E-1,9.616754532E0
1.039655966E0,-3.020938635E-1,7.573283911E-1,9.607182503E0
1.041879722E0,-3.122633696E-1,7.477570772E-1,9.597611427E0
1.044120200E0,-3.218346536E-1,7.525427341E-1,9.607182503E0
1.046368186E0,-3.164508045E-1,7.621139884E-1,9.597611427E0
1.048608847E0,-3.403790295E-1,7.627122402E-1,9.597611427E0
1.050845298E0,-3.403790295E-1,7.531409264E-1,9.597611427E0
1.053074546E0,-3.409772217E-1,7.483552694E-1,9.611370087E0
1.055302390E0,-3.451646566E-1,7.674978375E-1,9.597013474E0
1.057551780E0,-3.547359705E-1,7.674978375E-1,9.606584549E0
1.059790671E0,-3.738785386E-1,7.824530005E-1,9.616155624E0
1.062014488E0,-3.595215976E-1,7.866404653E-1,9.606584549E0
1.064259605E0,-3.780659735E-1,8.063812256E-1,9.616155624E0
1.066494590E0,-3.930211067E-1,8.063812256E-1,9.644271851E0
1.068736594E0,-3.786641955E-1,8.009973764E-1,9.649655342E0
1.070968650E0,-3.643072546E-1,8.057830334E-1,9.640084267E0
1.073205466E0,-3.643072546E-1,7.962117195E-1,9.654440880E0
1.075441490E0,-3.505485058E-1,7.818548083E-1,9.668798447E0
1.077675437E0,-3.403790295E-1,8.099704385E-1,9.673583984E0
1.079902671E0,-3.499503136E-1,8.003991842E-1,9.678369522E0
1.082146811E0,-3.308077157E-1,8.291130662E-1,9.692726135E0
1.084370994E0,-3.218346536E-1,8.093722463E-1,9.711869240E0
1.086628074E0,-3.218346536E-1,7.998009920E-1,9.721440315E0
1.088860191E0,-3.218346536E-1,8.093722463E-1,9.716654778E0
1.091100730E0,-3.122633696E-1,7.998009920E-1,9.707083702E0
1.093332786E0,-3.272185028E-1,7.663014531E-1,9.731011391E0
1.095569419E0,-3.080759048E-1,7.567301393E-1,9.731011391E0
1.097802817E0,-3.080759048E-1,7.519445419E-1,9.726225853E0
1.100030357E0,-3.230310678E-1,7.328019142E-1,9.740582466E0
1.102278953E0,-3.080759048E-1,7.423732281E-1,9.716654778E0
1.104516196E0,-3.182454109E-1,7.280163169E-1,9.726225853E0
1.106754355E0,-3.278166950E-1,7.238288522E-1,9.731011391E0
1.108987876E0,-3.278166950E-1,7.190431952E-1,9.726225853E0
1.111222923E0,-3.373879790E-1,7.286145091E-1,9.716654778E0
1.113460593E0,-3.421736360E-1,7.238288522E-1,9.721440315E0
1.115697105E0,-3.421736360E-1,7.190431952E-1,9.716654778E0
1.117933982E0,-3.661018610E-1,7.148557901E-1,9.711869240E0
1.120170310E0,-3.798605800E-1,7.339983582E-1,9.701699257E0
1.122407310E0,-3.798605800E-1,7.244270444E-1,9.697511673E0
1.124642661E0,-3.804588020E-1,7.292127013E-1,9.711270332E0
1.126879234E0,-3.900300860E-1,7.292127013E-1,9.730413437E0
1.129115318E0,-3.942175210E-1,7.387840152E-1,9.720842361E0
1.131351951E0,-3.996013701E-1,7.148557901E-1,9.720842361E0
1.133588462E0,-3.900300860E-1,7.292127013E-1,9.725627899E0
1.135824790E0,-4.043870270E-1,7.435696125E-1,9.735198975E0
1.138061484E0,-4.289134443E-1,7.154539824E-1,9.758528709E0
1.140298911E0,-4.283152521E-1,7.202396393E-1,9.753743172E0
1.142534080E0,-4.235295951E-1,7.250252366E-1,9.763314247E0
1.144767600E0,-4.283152521E-1,7.154539824E-1,9.744770050E0
1.146994407E0,-4.331009090E-1,7.058826685E-1,9.720842361E0
1.149243308E0,-4.235295951E-1,7.345965505E-1,9.730413437E0
1.151479819E0,-4.378865361E-1,7.208378315E-1,9.706484795E0
1.153719200E0,-4.474578202E-1,7.489534616E-1,9.744172096E0
1.155952781E0,-4.809573591E-1,7.256234884E-1,9.744172096E0
1.158190025E0,-4.815555513E-1,7.016952634E-1,9.734601021E0
1.160425376E0,-5.054838061E-1,7.214360237E-1,9.762716293E0
1.162661704E0,-5.054838061E-1,7.022934556E-1,9.786644936E0
1.164897788E0,-5.300102234E-1,6.831508875E-1,9.791430473E0
1.167134544E0,-5.347958803E-1,6.735795736E-1,9.786644936E0
1.169370750E0,-5.539384484E-1,6.741777658E-1,9.790832520E0
1.171607505E0,-5.641079545E-1,6.598208547E-1,9.790832520E0
1.173843833E0,-5.784648657E-1,6.598208547E-1,9.790832520E0
1.176078147E0,-5.736792088E-1,6.646065116E-1,9.795618057E0
1.178304282E0,-5.778666735E-1,6.789634228E-1,9.790832520E0
1.180553367E0,-5.635097623E-1,6.885347366E-1,9.781260490E0
1.182790183E0,-5.826523304E-1,6.795616150E-1,9.766903877E0
1.185029014E0,-5.730810165E-1,6.795616150E-1,9.757332802E0
1.187262107E0,-5.724828243E-1,6.987041831E-1,9.766903877E0
1.189498618E0,-5.581258535E-1,6.885347366E-1,9.748359680E0
1.191735190E0,-5.581258535E-1,7.124629617E-1,9.743574142E0
1.193972556E0,-5.581258535E-1,7.220342159E-1,9.757930756E0
1.196207786E0,-5.533402562E-1,7.172485590E-1,9.753145218E0
1.198444236E0,-5.383850932E-1,7.411768436E-1,9.762716293E0
1.200680503E0,-5.192425251E-1,7.357929349E-1,9.757930756E0
1.202917075E0,-5.192425251E-1,7.645068169E-1,9.762716293E0
1.205153464E0,-5.330012441E-1,7.507480979E-1,9.729216576E0
1.207389976E0,-5.383850932E-1,7.459624410E-1,9.738788605E0
1.209626609E0,-5.186443329E-1,7.645068169E-1,9.734002113E0
1.211859886E0,-5.282155871E-1,7.459624410E-1,9.714859962E0
1.214083030E0,-5.377869010E-1,7.651050687E-1,9.729216576E0
1.216335288E0,-5.234299302E-1,7.603194118E-1,9.714859962E0
1.218571617E0,-5.138586760E-1,7.740781307E-1,9.710074425E0
1.220812461E0,-4.995017350E-1,7.740781307E-1,9.705886841E0
1.223044822E0,-4.899304509E-1,7.645068169E-1,9.705886841E0
1.225281150E0,-4.851447940E-1,7.740781307E-1,9.725028992E0
1.227517966E0,-4.893322289E-1,7.932206988E-1,9.701101303E0
1.229752341E0,-4.893322289E-1,7.932206988E-1,9.715457916E0
1.231975974E0,-4.701896608E-1,8.069794178E-1,9.720243454E0
1.234215171E0,-4.749752879E-1,8.021938205E-1,9.705886841E0
1.236462913E0,-4.893322289E-1,8.027920127E-1,9.725028992E0
1.238702475E0,-4.749752879E-1,8.069794178E-1,9.748957634E0
1.240935996E0,-4.564309120E-1,7.926225066E-1,9.763314247E0
1.243160300E0,-4.462614357E-1,8.255237937E-1,9.772886276E0
1.245409324E0,-4.606183469E-1,8.213363886E-1,9.772886276E0
1.247643393E0,-4.325026870E-1,8.159525394E-1,9.792028427E0
1.249873008E0,-4.325026870E-1,8.063812256E-1,9.772886276E0
1.252118247E0,-4.133601189E-1,8.201399446E-1,9.801599503E0
1.254355308E0,-4.277170599E-1,8.105686903E-1,9.806385040E0
1.256593833E0,-4.037888348E-1,8.057830334E-1,9.792028427E0
1.258827293E0,-4.181457460E-1,7.866404653E-1,9.787242889E0
1.261063560E0,-4.426721931E-1,7.872386575E-1,9.806385040E0
1.263300498E0,-4.325026870E-1,7.920243144E-1,9.796813965E0
1.265537986E0,-4.283152521E-1,7.537391186E-1,9.777671814E0
1.267770468E0,-4.474578202E-1,7.441678643E-1,9.777671814E0
1.269999107E0,-4.432703853E-1,7.298108935E-1,9.777671814E0
1.272245384E0,-4.624129832E-1,7.112665176E-1,9.763314247E0
1.274482322E0,-4.767699242E-1,7.160521746E-1,9.758528709E0
1.276721396E0,-4.432703853E-1,6.963114142E-1,9.748957634E0
1.278951987E0,-4.624129832E-1,6.825526357E-1,9.729815483E0
1.281176841E0,-4.528416991E-1,6.729813814E-1,9.720243454E0
1.283417014E0,-4.630111754E-1,6.634100676E-1,9.744172096E0
1.285664207E0,-4.582255483E-1,6.586244106E-1,9.720243454E0
1.287903708E0,-4.773681164E-1,6.681957245E-1,9.734601021E0
1.290139609E0,-4.869394004E-1,6.640082598E-1,9.744172096E0
1.292372947E0,-4.683950245E-1,6.394818425E-1,9.758528709E0
1.294609946E0,-4.869394004E-1,6.681957245E-1,9.777072906E0
1.296846275E0,-4.875376225E-1,6.442674994E-1,9.781859398E0
1.299083030E0,-4.779663086E-1,6.346961856E-1,9.782457352E0
1.301320152E0,-4.923232496E-1,6.681957245E-1,9.815358162E0
1.303555564E0,-4.971089065E-1,6.681957245E-1,9.810572624E0
1.305792075E0,-5.066801906E-1,6.681957245E-1,9.834501266E0
1.308024924E0,-5.018945336E-1,6.825526357E-1,9.844072342E0
1.310252769E0,-5.114658475E-1,6.777670383E-1,9.867402077E0
1.312501060E0,-4.971089065E-1,6.921239495E-1,9.863214493E0
1.314737632E0,-4.827519655E-1,6.915257573E-1,9.887143135E0
1.316977012E0,-4.875376225E-1,6.963114142E-1,9.911071777E0
1.319211570E0,-4.731806815E-1,6.819544435E-1,9.901499748E0
1.321446861E0,-4.929214716E-1,6.675975323E-1,9.915857315E0
1.323683494E0,-4.833501875E-1,6.915257573E-1,9.934401512E0
1.325920249E0,-4.540380836E-1,7.052844763E-1,9.939785004E0
1.328156089E0,-4.737788737E-1,7.004988194E-1,9.967901230E0
1.330392417E0,-4.689932466E-1,6.957131624E-1,9.963713646E0
1.332628562E0,-4.683950245E-1,7.148557901E-1,9.967901230E0
1.334865562E0,-4.689932466E-1,7.196413875E-1,9.982257843E0
1.337102622E0,-4.594219327E-1,7.004988194E-1,9.958928108E0
1.339338035E0,-4.642075896E-1,7.004988194E-1,9.973284721E0
1.341574546E0,-4.642075896E-1,7.052844763E-1,9.963713646E0
1.343807700E0,-4.779663086E-1,7.106683254E-1,9.948758125E0
1.346035484E0,-4.779663086E-1,7.154539824E-1,9.943972588E0
1.348283530E0,-4.636093974E-1,6.957131624E-1,9.925428391E0
1.350520103E0,-4.731806815E-1,6.963114142E-1,9.911071777E0
1.352759666E0,-4.881358147E-1,6.723831892E-1,9.891928673E0
1.354994041E0,-5.066801906E-1,6.825526357E-1,9.881759644E0
1.357229331E0,-5.114658475E-1,6.969096065E-1,9.876974106E0
1.359465659E0,-5.114658475E-1,6.777670383E-1,9.834501266E0
1.361701804E0,-5.204389095E-1,6.831508875E-1,9.824930191E0
1.363938804E0,-5.012963414E-1,6.921239495E-1,9.815358162E0
1.366174949E0,-5.395814776E-1,6.783652306E-1,9.786644936E0
1.368411460E0,-5.300102234E-1,6.831508875E-1,9.819545746E0
1.370647849E0,-5.347958803E-1,6.879364848E-1,9.814760208E0
1.372888083E0,-5.395814776E-1,6.975077987E-1,9.800403595E0
1.375127524E0,-5.491527915E-1,6.789634228E-1,9.762716293E0
1.377345359E0,-5.389832854E-1,6.981059909E-1,9.753145218E0
1.379590049E0,-5.533402562E-1,6.741777658E-1,9.724431038E0
1.381815512E0,-5.533402562E-1,6.789634228E-1,9.705288887E0
1.384069236E0,-5.485545993E-1,6.789634228E-1,9.710074425E0
1.386302818E0,-5.294120312E-1,6.741777658E-1,9.695717812E0
1.388542198E0,-5.341976285E-1,6.741777658E-1,9.681360245E0
1.390776694E0,-5.341976285E-1,6.646065116E-1,9.671789169E0
1.393011802E0,-5.347958803E-1,6.406782866E-1,9.681360245E0
1.395248679E0,-5.150550604E-1,6.454638839E-1,9.658030510E0
1.397485435E0,-5.150550604E-1,6.454638839E-1,9.667601585E0
1.399718345E0,-5.102694035E-1,6.406782866E-1,9.653244972E0
1.401945640E0,-5.054838061E-1,6.454638839E-1,9.619745255E0
1.404193687E0,-5.150550604E-1,6.358926296E-1,9.653244972E0
1.406430564E0,-5.006981492E-1,6.454638839E-1,9.634101868E0
1.408670981E0,-5.048855543E-1,6.454638839E-1,9.610174179E0
1.410902732E0,-5.000999570E-1,6.598208547E-1,9.614959717E0
1.413138816E0,-5.000999570E-1,6.693921089E-1,9.605388641E0
1.415375755E0,-4.905286431E-1,6.646065116E-1,9.591629982E0
1.417612754E0,-4.851447940E-1,6.837490797E-1,9.553344727E0
1.419847190E0,-4.707878530E-1,6.885347366E-1,9.553344727E0
1.422073264E0,-4.606183469E-1,6.837490797E-1,9.519845009E0
1.424321677E0,-4.510470629E-1,6.933203340E-1,9.510871887E0
1.426558921E0,-4.462614357E-1,6.879364848E-1,9.510871887E0
1.428797508E0,-4.462614357E-1,6.687939167E-1,9.506086349E0
1.431030906E0,-4.271188378E-1,6.879364848E-1,9.501300812E0
1.433266929E0,-4.223332107E-1,6.879364848E-1,9.510871887E0
1.435503745E0,-4.223332107E-1,6.879364848E-1,9.525228500E0
1.437737143E0,-4.127618968E-1,7.022934556E-1,9.506086349E0
1.439965293E0,-3.888336718E-1,6.921239495E-1,9.530014038E0
1.442212424E0,-3.978067636E-1,7.256234884E-1,9.534799576E0
1.444438316E0,-3.744767308E-1,7.010970116E-1,9.535398483E0
1.446688620E0,-3.786641955E-1,7.202396393E-1,9.530612946E0
1.448921652E0,-3.744767308E-1,7.298108935E-1,9.563513756E0
1.451161337E0,-3.936193287E-1,7.256234884E-1,9.553942680E0
1.453395103E0,-3.601198196E-1,7.298108935E-1,9.564111710E0
1.455631187E0,-3.547359705E-1,7.393822074E-1,9.573683739E0
1.457867820E0,-3.882354796E-1,7.728816867E-1,9.587442398E0
1.460105918E0,-4.211367965E-1,8.021938205E-1,9.591629982E0
1.462347007E0,-4.109672904E-1,8.213363886E-1,9.563513756E0
1.464576804E0,-3.774677813E-1,8.207381964E-1,9.549157143E0
1.466813865E0,-3.296113312E-1,8.153542876E-1,9.544969559E0
1.469049583E0,-3.158525825E-1,8.051848412E-1,9.573683739E0
1.471286521E0,-3.158525825E-1,7.908278704E-1,9.578469276E0
1.473522483E0,-3.260220885E-1,7.674978375E-1,9.588040352E0
1.475755637E0,-3.451646566E-1,7.627122402E-1,9.592825890E0
1.477981040E0,-3.786641955E-1,7.441678643E-1,9.563513756E0
1.480218284E0,-3.690928817E-1,7.633104324E-1,9.597013474E0
1.482453269E0,-3.930211067E-1,7.399803996E-1,9.563513756E0
1.484692954E0,-4.175475538E-1,7.304090858E-1,9.563513756E0
1.486932028E0,-4.408775866E-1,7.549355626E-1,9.548559189E0
1.489180870E0,-4.313062727E-1,7.495517135E-1,9.567701340E0
1.491416893E0,-4.462614357E-1,7.405785918E-1,9.572486877E0
1.493653404E0,-4.504488707E-1,7.405785918E-1,9.562915802E0
1.495886741E0,-4.462614357E-1,7.501499057E-1,9.591629982E0
1.498124168E0,-4.510470629E-1,7.310073376E-1,9.567701340E0
1.500359702E0,-4.695914388E-1,7.459624410E-1,9.558130264E0
1.502596091E0,-4.654040039E-1,7.405785918E-1,9.572486877E0
1.504832176E0,-4.504488707E-1,7.549355626E-1,9.562915802E0
1.507068931E0,-4.606183469E-1,7.262216806E-1,9.596415520E0
1.509305259E0,-4.558327198E-1,7.310073376E-1,9.605986595E0
1.511541587E0,-4.325026870E-1,7.160521746E-1,9.663414001E0
1.513778159E0,-4.420739710E-1,7.208378315E-1,9.672985077E0
1.516015464E0,-4.283152521E-1,7.058826685E-1,9.711270332E0
1.518250877E0,-4.474578202E-1,7.160521746E-1,9.710672379E0
1.520487449E0,-4.432703853E-1,7.010970116E-1,9.739386559E0
1.522720420E0,-4.390829504E-1,6.819544435E-1,9.772886276E0
1.524947837E0,-4.295116663E-1,6.771687865E-1,9.811170578E0
1.527196372E0,-4.348955154E-1,6.813562512E-1,9.849455833E0
1.529432944E0,-4.109672904E-1,6.622136831E-1,9.844670296E0
1.531672630E0,-4.211367965E-1,6.478567123E-1,9.892526627E0
1.533906821E0,-4.259224236E-1,6.334998012E-1,9.882955551E0
1.536141990E0,-4.354937077E-1,6.526423693E-1,9.902098656E0
1.538379050E0,-4.498506486E-1,6.526423693E-1,9.934999466E0
1.540614768E0,-4.456632137E-1,6.382854581E-1,9.934999466E0
1.542847312E0,-4.504488707E-1,6.526423693E-1,9.954142570E0
1.545087730E0,-4.600201547E-1,6.669993401E-1,9.978070259E0
1.547323997E0,-4.887340367E-1,6.675975323E-1,9.963115692E0
1.549561729E0,-4.881358147E-1,6.867401004E-1,9.958329201E0
1.551798179E0,-4.935196638E-1,6.771687865E-1,9.977472305E0
1.554033286E0,-5.126622319E-1,6.771687865E-1,9.977472305E0
1.556269920E0,-5.024927258E-1,6.819544435E-1,9.967901230E0
1.558505943E0,-5.072783828E-1,6.819544435E-1,9.953543663E0
1.560742820E0,-5.072783828E-1,7.010970116E-1,9.963115692E0
1.562979148E0,-5.216353536E-1,6.969096065E-1,9.963115692E0
1.565215659E0,-5.114658475E-1,7.064808607E-1,9.939187050E0
1.567451987E0,-4.929214716E-1,7.010970116E-1,9.948758125E0
1.569689353E0,-5.258227587E-1,7.160521746E-1,9.948758125E0
1.571924888E0,-5.066801906E-1,7.250252366E-1,9.934401512E0
1.574161216E0,-4.971089065E-1,7.154539824E-1,9.915258408E0
1.576397056E0,-4.827519655E-1,7.058826685E-1,9.920642853E0
1.578630881E0,-4.773681164E-1,7.106683254E-1,9.882357597E0
1.580858421E0,-4.827519655E-1,7.058826685E-1,9.882357597E0
1.583106589E0,-4.588237405E-1,7.010970116E-1,9.891928673E0
1.585343467E0,-4.534398913E-1,7.154539824E-1,9.872786522E0
1.587580894E0,-4.492524564E-1,7.052844763E-1,9.882357597E0
1.589804099E0,-4.492524564E-1,6.867401004E-1,9.863813400E0
1.592052329E0,-4.253242314E-1,6.765705943E-1,9.863813400E0
1.594288291E0,-4.396811724E-1,6.717849374E-1,9.863813400E0
1.596527977E0,-4.205385745E-1,6.765705943E-1,9.868598938E0
1.598761619E0,-4.253242314E-1,6.717849374E-1,9.839884758E0
1.600998191E0,-4.253242314E-1,6.574280262E-1,9.844670296E0
1.603234824E0,-4.253242314E-1,6.574280262E-1,9.839884758E0
1.605472007E0,-4.492524564E-1,6.723831892E-1,9.830313683E0
1.607704123E0,-4.444667995E-1,6.532405615E-1,9.854242325E0
1.609932029E0,-4.444667995E-1,6.861419082E-1,9.868598938E0
1.612180992E0,-4.253242314E-1,6.717849374E-1,9.854242325E0
1.614416648E0,-4.301098585E-1,6.861419082E-1,9.873384476E0
1.616655905E0,-4.109672904E-1,6.957131624E-1,9.868598938E0
1.618888999E0,-4.199403822E-1,6.957131624E-1,9.849455833E0
1.621126060E0,-4.151547253E-1,6.909275651E-1,9.830313683E0
1.623363120E0,-4.103690982E-1,7.004988194E-1,9.859027863E0
1.625598533E0,-4.151547253E-1,6.909275651E-1,9.839884758E0
1.627835044E0,-4.199403822E-1,6.861419082E-1,9.820742607E0
1.630071128E0,-4.295116663E-1,6.909275651E-1,9.825528145E0
1.632307700E0,-4.247260094E-1,6.861419082E-1,9.811170578E0
1.634544028E0,-4.348955154E-1,6.675975323E-1,9.815957069E0
1.636780601E0,-4.438686073E-1,6.915257573E-1,9.787242889E0
1.639017234E0,-4.438686073E-1,6.867401004E-1,9.772886276E0
1.641254539E0,-4.342973232E-1,6.532405615E-1,9.758528709E0
1.643489829E0,-4.570291340E-1,7.160521746E-1,9.729815483E0
1.645722251E0,-4.480560422E-1,7.112665176E-1,9.739386559E0
1.647946617E0,-4.624129832E-1,6.969096065E-1,9.729815483E0
1.650199119E0,-4.666004181E-1,7.160521746E-1,9.715457916E0
1.652435691E0,-4.719842672E-1,6.873382926E-1,9.710672379E0
1.654675925E0,-4.713860750E-1,7.022934556E-1,9.691530228E0
1.656908591E0,-4.857429862E-1,7.118647099E-1,9.672387123E0
1.659145896E0,-4.666004181E-1,7.112665176E-1,9.696315765E0
1.661381431E0,-4.707878530E-1,7.310073376E-1,9.681958199E0
1.663617515E0,-4.618147612E-1,7.256234884E-1,9.701101303E0
1.665853599E0,-4.618147612E-1,7.208378315E-1,9.701101303E0
1.668090354E0,-4.570291340E-1,7.208378315E-1,9.710672379E0
1.670326804E0,-4.468596280E-1,7.399803996E-1,9.686744690E0
1.672563316E0,-4.420739710E-1,7.447660565E-1,9.720243454E0
1.674796104E0,-4.522434771E-1,7.304090858E-1,9.725028992E0
1.677022788E0,-4.378865361E-1,6.921239495E-1,9.692128181E0
1.679272300E0,-4.331009090E-1,7.010970116E-1,9.706484795E0
1.681509238E0,-4.474578202E-1,7.208378315E-1,9.710672379E0
1.683749778E0,-4.426721931E-1,6.921239495E-1,9.701699257E0
1.685981773E0,-4.378865361E-1,7.010970116E-1,9.720243454E0
1.688217796E0,-4.241278172E-1,7.010970116E-1,9.735198975E0
1.690453880E0,-4.283152521E-1,6.963114142E-1,9.711270332E0
1.692691001E0,-4.426721931E-1,7.202396393E-1,9.734601021E0
1.694928306E0,-4.193421602E-1,7.010970116E-1,9.730413437E0
1.697163535E0,-4.145565331E-1,6.963114142E-1,9.739984512E0
1.699400291E0,-4.193421602E-1,6.963114142E-1,9.739984512E0
1.701636314E0,-4.193421602E-1,6.963114142E-1,9.739984512E0
1.703872947E0,-4.097708762E-1,7.148557901E-1,9.759127617E0
1.706109214E0,-4.139583111E-1,7.154539824E-1,9.749555588E0
1.708345786E0,-3.906283081E-1,7.004988194E-1,9.754341125E0
1.710582053E0,-3.906283081E-1,6.909275651E-1,9.744770050E0
1.712818198E0,-3.810569942E-1,6.813562512E-1,9.763913155E0
1.715054771E0,-3.762713671E-1,6.957131624E-1,9.735198975E0
1.717291343E0,-3.858426511E-1,6.909275651E-1,9.763913155E0
1.719527793E0,-3.571287692E-1,6.999006271E-1,9.763913155E0
1.721764304E0,-3.481557071E-1,6.807580590E-1,9.787840843E0
1.724000571E0,-3.529413342E-1,6.855437160E-1,9.797411919E0
1.726236900E0,-3.678964674E-1,6.616154313E-1,9.811769485E0
1.728470603E0,-3.720839322E-1,6.711867452E-1,9.816555023E0
1.730696433E0,-3.631108403E-1,6.610172391E-1,9.859625816E0
1.732931723E0,-3.631108403E-1,6.711867452E-1,9.845269203E0
1.735170798E0,-3.918247223E-1,6.472585201E-1,9.850054741E0
1.737421713E0,-3.966103494E-1,6.711867452E-1,9.878170013E0
1.739655357E0,-3.918247223E-1,6.855437160E-1,9.882955551E0
1.741882225E0,-4.013960063E-1,6.855437160E-1,9.882955551E0
1.744128257E0,-4.013960063E-1,6.999006271E-1,9.882955551E0
1.746364890E0,-3.966103494E-1,6.903293133E-1,9.887741089E0
1.748605552E0,-4.007977843E-1,7.046862841E-1,9.873384476E0
1.750837547E0,-4.205385745E-1,7.100701332E-1,9.892526627E0
1.753071372E0,-4.199403822E-1,7.292127013E-1,9.868598938E0
1.755299217E0,-4.390829504E-1,7.148557901E-1,9.849455833E0
1.757549765E0,-4.295116663E-1,7.148557901E-1,9.844670296E0
1.759790244E0,-4.336991012E-1,7.339983582E-1,9.820742607E0
1.762010153E0,-4.384847581E-1,7.202396393E-1,9.811170578E0
1.764256126E0,-4.432703853E-1,7.250252366E-1,9.811170578E0
1.766490988E0,-4.384847581E-1,7.298108935E-1,9.782457352E0
1.768731895E0,-4.480560422E-1,7.058826685E-1,9.758528709E0
1.770965171E0,-4.480560422E-1,7.010970116E-1,9.753743172E0
1.773201255E0,-4.528416991E-1,7.064808607E-1,9.734601021E0
1.775438010E0,-4.331009090E-1,7.112665176E-1,9.692128181E0
1.777671225E0,-4.522434771E-1,7.016952634E-1,9.677172661E0
1.779899070E0,-4.474578202E-1,7.064808607E-1,9.663414001E0
1.782147605E0,-4.666004181E-1,6.831508875E-1,9.648459435E0
1.784384910E0,-4.755735099E-1,7.166503668E-1,9.629316330E0
1.786622946E0,-4.857429862E-1,7.022934556E-1,9.653244972E0
1.788853537E0,-4.953143001E-1,6.975077987E-1,9.658030510E0
1.791080650E0,-4.953143001E-1,6.879364848E-1,9.653244972E0
1.793329490E0,-4.857429862E-1,6.975077987E-1,9.653244972E0
1.795565757E0,-4.905286431E-1,6.783652306E-1,9.658030510E0
1.797802207E0,-4.857429862E-1,6.831508875E-1,9.653244972E0
1.800027244E0,-4.953143001E-1,6.789634228E-1,9.634101868E0
1.802276206E0,-4.911268353E-1,6.640082598E-1,9.648459435E0
1.804511375E0,-4.666004181E-1,6.592226624E-1,9.629914284E0
1.806749106E0,-4.815555513E-1,6.496513486E-1,9.648459435E0
1.808977622E0,-4.863412082E-1,6.687939167E-1,9.653244972E0
1.811222739E0,-4.953143001E-1,6.783652306E-1,9.667601585E0
1.813456870E0,-4.863412082E-1,6.687939167E-1,9.677172661E0
1.815695152E0,-5.054838061E-1,6.502495408E-1,9.667601585E0
1.817929527E0,-5.150550604E-1,6.640082598E-1,9.710074425E0
1.820167380E0,-5.054838061E-1,6.640082598E-1,9.710672379E0
1.822402732E0,-5.012963414E-1,6.496513486E-1,9.729815483E0
1.824639548E0,-4.917250574E-1,6.496513486E-1,9.758528709E0
1.826876304E0,-4.821537733E-1,6.490531564E-1,9.763314247E0
1.829111900E0,-4.630111754E-1,6.538388133E-1,9.777671814E0
1.831348228E0,-4.779663086E-1,6.442674994E-1,9.787242889E0
1.833584556E0,-4.636093974E-1,6.490531564E-1,9.787242889E0
1.835821433E0,-4.492524564E-1,6.436693072E-1,9.811170578E0
1.838058738E0,-4.588237405E-1,6.580262184E-1,9.796813965E0
1.840294028E0,-4.438686073E-1,6.580262184E-1,9.772886276E0
1.842530418E0,-4.492524564E-1,6.197410822E-1,9.782457352E0
1.844765098E0,-4.683950245E-1,6.251249313E-1,9.782457352E0
1.846996909E0,-4.636093974E-1,6.299105883E-1,9.763314247E0
1.849239646E0,-4.779663086E-1,6.203392744E-1,9.772886276E0
1.851476218E0,-4.731806815E-1,6.346961856E-1,9.753743172E0
1.853714561E0,-4.827519655E-1,6.209374666E-1,9.725028992E0
1.855949790E0,-4.827519655E-1,6.065805554E-1,9.710672379E0
1.858185142E0,-5.060819983E-1,6.305087805E-1,9.710672379E0
1.860421653E0,-5.204389095E-1,6.311069727E-1,9.672387123E0
1.862657798E0,-5.204389095E-1,6.215356588E-1,9.658030510E0
1.864894431E0,-5.060819983E-1,6.071787477E-1,9.643673897E0
1.867130943E0,-4.677968323E-1,5.922235847E-1,9.653842926E0
1.869367271E0,-4.390829504E-1,5.868397355E-1,9.653842926E0
1.871603965E0,-4.444667995E-1,5.581258535E-1,9.672985077E0
1.873838462E0,-4.636093974E-1,5.587241054E-1,9.658628464E0
1.876064841E0,-4.588237405E-1,5.443671346E-1,9.653842926E0
1.878313132E0,-4.642075896E-1,5.108676553E-1,9.663414001E0
1.880549095E0,-4.642075896E-1,5.300102234E-1,9.677771568E0
1.882788719E0,-4.594219327E-1,5.485545993E-1,9.701699257E0
1.885022300E0,-4.689932466E-1,5.389832854E-1,9.715457916E0
1.887258628E0,-4.737788737E-1,5.395814776E-1,9.691530228E0
1.889495261E0,-4.594219327E-1,5.437689424E-1,9.706484795E0
1.891732444E0,-4.402793646E-1,5.389832854E-1,9.706484795E0
1.893967612E0,-4.307080805E-1,5.623133183E-1,9.720842361E0
1.896204490E0,-4.067798555E-1,5.575276613E-1,9.711270332E0
1.898441551E0,-4.013960063E-1,5.623133183E-1,9.692726135E0
1.900677390E0,-3.876372576E-1,5.569294691E-1,9.731011391E0
1.902913474E0,-3.732803464E-1,5.760720372E-1,9.740582466E0
1.905149680E0,-3.726821244E-1,5.808576941E-1,9.716654778E0
1.907386313E0,-3.637090325E-1,5.850451589E-1,9.750154495E0
1.909623862E0,-3.774677813E-1,6.000002623E-1,9.754341125E0
1.911858909E0,-3.631108403E-1,6.233302951E-1,9.759725571E0
1.914095359E0,-3.726821244E-1,6.239284873E-1,9.754341125E0
1.916331626E0,-3.583251834E-1,6.233302951E-1,9.769296646E0
1.918568504E0,-3.577269912E-1,6.472585201E-1,9.778269768E0
1.920804832E0,-3.720839322E-1,6.424728632E-1,9.763913155E0
1.923041160E0,-3.768695593E-1,6.759724021E-1,9.773484230E0
1.925277976E0,-3.768695593E-1,6.759724021E-1,9.778269768E0
1.927515220E0,-3.810569942E-1,6.813562512E-1,9.768698692E0
1.929750449E0,-4.007977843E-1,6.813562512E-1,9.787840843E0
1.931987083E0,-3.858426511E-1,6.861419082E-1,9.768698692E0
1.934222679E0,-4.007977843E-1,6.765705943E-1,9.778269768E0
1.936459556E0,-3.858426511E-1,6.957131624E-1,9.763913155E0
1.938692771E0,-3.858426511E-1,7.100701332E-1,9.792626381E0
1.940918906E0,-3.954139352E-1,7.004988194E-1,9.778269768E0
1.943163535E0,-3.852444589E-1,7.196413875E-1,9.759127617E0
1.945406577E0,-3.954139352E-1,6.957131624E-1,9.754341125E0
1.947641502E0,-4.145565331E-1,6.915257573E-1,9.754341125E0
1.949867454E0,-4.049852192E-1,7.010970116E-1,9.730413437E0
1.952114036E0,-3.948157430E-1,7.052844763E-1,9.735198975E0
1.954350974E0,-4.049852192E-1,6.963114142E-1,9.730413437E0
1.956590293E0,-3.762713671E-1,6.909275651E-1,9.739984512E0
1.958820884E0,-4.001995921E-1,6.909275651E-1,9.725627899E0
1.961048484E0,-3.756731451E-1,7.004988194E-1,9.725627899E0
1.963297691E0,-3.900300860E-1,7.004988194E-1,9.711270332E0
1.965532859E0,-3.852444589E-1,6.861419082E-1,9.683155060E0
1.967773581E0,-3.948157430E-1,7.106683254E-1,9.672985077E0
1.970009361E0,-3.996013701E-1,7.010970116E-1,9.668199539E0
1.972242332E0,-3.948157430E-1,6.963114142E-1,9.663414001E0
1.974478538E0,-3.798605800E-1,7.058826685E-1,9.644869804E0
1.976711081E0,-3.900300860E-1,6.771687865E-1,9.620942116E0
1.978940024E0,-3.559323549E-1,6.813562512E-1,9.587442398E0
1.981185935E0,-3.415754437E-1,6.957131624E-1,9.578469276E0
1.983409751E0,-3.559323549E-1,6.909275651E-1,9.592227936E0
1.985651695E0,-3.661018610E-1,6.717849374E-1,9.611370087E0
1.987893882E0,-3.756731451E-1,6.765705943E-1,9.644869804E0
1.990124594E0,-3.613162339E-1,6.669993401E-1,9.616155624E0
1.992373007E0,-3.708875179E-1,6.675975323E-1,9.606584549E0
1.994606528E0,-3.661018610E-1,6.717849374E-1,9.640084267E0
1.996845847E0,-3.756731451E-1,6.628118753E-1,9.635298729E0
1.999080161E0,-3.900300860E-1,6.628118753E-1,9.630513191E0
2.001315452E0,-4.001995921E-1,6.628118753E-1,9.653842926E0
2.003551841E0,-4.049852192E-1,6.436693072E-1,9.687342644E0
2.005784995E0,-4.241278172E-1,6.580262184E-1,9.672985077E0
2.008013084E0,-4.241278172E-1,6.580262184E-1,9.696913719E0
2.010261375E0,-3.960121572E-1,6.478567123E-1,9.711270332E0
2.012497703E0,-4.193421602E-1,6.723831892E-1,9.711270332E0
2.014737205E0,-4.295116663E-1,6.675975323E-1,9.734601021E0
2.016971458E0,-4.390829504E-1,6.628118753E-1,9.753743172E0
2.019206687E0,-4.390829504E-1,6.675975323E-1,9.777671814E0
2.021443443E0,-4.151547253E-1,6.669993401E-1,9.792028427E0
2.023679283E0,-4.295116663E-1,6.723831892E-1,9.806385040E0
2.025916160E0,-4.390829504E-1,6.867401004E-1,9.806385040E0
2.028152366E0,-4.247260094E-1,6.861419082E-1,9.815957069E0
2.030388755E0,-4.301098585E-1,6.861419082E-1,9.844670296E0
2.032625388E0,-4.396811724E-1,6.628118753E-1,9.820742607E0
2.034862998E0,-4.444667995E-1,6.723831892E-1,9.835099220E0
2.037098533E0,-4.683950245E-1,6.771687865E-1,9.839286804E0
2.039334922E0,-4.588237405E-1,6.771687865E-1,9.834501266E0
2.041571861E0,-4.295116663E-1,6.957131624E-1,9.839884758E0
2.043805991E0,-4.396811724E-1,6.813562512E-1,9.839884758E0
2.046035178E0,-4.342973232E-1,6.957131624E-1,9.830313683E0
2.048267906E0,-4.151547253E-1,7.004988194E-1,9.835099220E0
2.050516929E0,-4.199403822E-1,7.004988194E-1,9.820742607E0
2.052755393E0,-4.097708762E-1,7.148557901E-1,9.811170578E0
2.054992331E0,-4.055834413E-1,6.909275651E-1,9.806385040E0
2.057225669E0,-4.253242314E-1,6.909275651E-1,9.854242325E0
2.059462058E0,-4.103690982E-1,7.100701332E-1,9.859027863E0
2.061698875E0,-4.151547253E-1,7.100701332E-1,9.830313683E0
2.063935264E0,-4.151547253E-1,7.052844763E-1,9.830313683E0
2.066171714E0,-4.342973232E-1,7.010970116E-1,9.801599503E0
2.068407981E0,-4.342973232E-1,7.058826685E-1,9.811170578E0
2.070645103E0,-4.342973232E-1,7.148557901E-1,9.825528145E0
2.072879477E0,-4.205385745E-1,6.622136831E-1,9.825528145E0
2.075112388E0,-4.205385745E-1,6.478567123E-1,9.839884758E0
2.077353233E0,-4.253242314E-1,6.526423693E-1,9.835099220E0
2.079590232E0,-4.205385745E-1,6.574280262E-1,9.844670296E0
2.081827719E0,-4.157529473E-1,6.526423693E-1,9.835099220E0
2.084062888E0,-4.301098585E-1,6.478567123E-1,9.820742607E0
2.086299399E0,-4.013960063E-1,6.526423693E-1,9.820742607E0
2.088536704E0,-4.007977843E-1,6.717849374E-1,9.806983948E0
2.090772117E0,-4.007977843E-1,6.622136831E-1,9.787840843E0
2.093008628E0,-4.055834413E-1,6.622136831E-1,9.792626381E0
2.095244529E0,-3.864408433E-1,6.765705943E-1,9.768698692E0
2.097481467E0,-3.858426511E-1,6.765705943E-1,9.749555588E0
2.099714316E0,-3.810569942E-1,6.909275651E-1,9.754341125E0
2.101942039E0,-3.762713671E-1,6.765705943E-1,9.754341125E0
2.104190696E0,-3.768695593E-1,6.526423693E-1,9.744770050E0
2.106427879E0,-3.864408433E-1,6.526423693E-1,9.754341125E0
2.108666159E0,-3.816552162E-1,6.334998012E-1,9.749555588E0
2.110899741E0,-3.726821244E-1,6.376872063E-1,9.783055305E0
2.113136802E0,-3.631108403E-1,6.329016089E-1,9.773484230E0
2.115372398E0,-3.487538993E-1,6.233302951E-1,9.754940033E0
2.117604820E0,-3.535395563E-1,6.185446382E-1,9.769296646E0
2.119826438E0,-3.296113312E-1,6.179464459E-1,9.783653259E0
2.122070945E0,-3.200400174E-1,6.275177598E-1,9.812367439E0
2.124319236E0,-3.206382394E-1,6.179464459E-1,9.817152977E0
2.126558555E0,-3.056831062E-1,6.221339107E-1,9.807581902E0
2.128793906E0,-2.913261652E-1,6.221339107E-1,9.807581902E0
2.131027244E0,-3.008974493E-1,6.173482537E-1,9.812367439E0
2.133263999E0,-2.919243574E-1,6.125625968E-1,9.817152977E0
2.135500083E0,-2.817548811E-1,6.317051649E-1,9.817152977E0
2.137733725E0,-2.913261652E-1,6.173482537E-1,9.807581902E0
2.139956870E0,-2.769692242E-1,6.173482537E-1,9.812965393E0
2.142191978E0,-2.919243574E-1,6.029912829E-1,9.793823242E0
2.144445701E0,-2.769692242E-1,6.125625968E-1,9.779465675E0
2.146685385E0,-2.817548811E-1,5.982056856E-1,9.779465675E0
2.148922934E0,-2.961117923E-1,6.221339107E-1,9.783653259E0
2.151155173E0,-2.721835673E-1,6.317051649E-1,9.779465675E0
2.153391380E0,-2.865405083E-1,6.364908218E-1,9.779465675E0
2.155627769E0,-2.913261652E-1,6.317051649E-1,9.779465675E0
2.157864036E0,-2.763710022E-1,6.508477330E-1,9.774680138E0
2.160100486E0,-2.763710022E-1,6.460621357E-1,9.750752449E0
2.162337302E0,-2.626122832E-1,6.125625968E-1,9.755537987E0
2.164573630E0,-2.524427772E-1,6.317051649E-1,9.745966911E0
2.166810020E0,-2.769692242E-1,6.173482537E-1,9.784252167E0
2.169046470E0,-2.578266263E-1,6.173482537E-1,9.765109062E0
2.171282859E0,-2.626122832E-1,6.269195080E-1,9.779465675E0
2.173519431E0,-2.524427772E-1,6.598208547E-1,9.793823242E0
2.175754965E0,-2.530409992E-1,6.406782866E-1,9.793823242E0
2.177986106E0,-2.572284341E-1,6.550351977E-1,9.789037704E0
2.180216331E0,-2.715853751E-1,6.460621357E-1,9.779465675E0
2.182464927E0,-2.715853751E-1,6.556333899E-1,9.774680138E0
2.184702964E0,-2.667997181E-1,6.556333899E-1,9.769894600E0
2.186940573E0,-2.907279432E-1,6.604190469E-1,9.760323524E0
2.189173972E0,-2.955136001E-1,6.514459848E-1,9.765109062E0
2.191410240E0,-2.955136001E-1,6.370890141E-1,9.765109062E0
2.193647117E0,-3.002992272E-1,6.562315822E-1,9.774082184E0
2.195884422E0,-2.757728100E-1,6.604190469E-1,9.731609344E0
2.198119712E0,-2.715853751E-1,6.460621357E-1,9.736394882E0
2.200356101E0,-2.715853751E-1,6.508477330E-1,9.736394882E0
2.202592429E0,-2.811566591E-1,6.508477330E-1,9.736394882E0
2.204824912E0,-2.709871531E-1,6.604190469E-1,9.712467194E0
2.207048179E0,-2.859423161E-1,6.418746710E-1,9.726823807E0
2.209301597E0,-2.859423161E-1,6.323033571E-1,9.702896118E0
2.211538413E0,-2.667997181E-1,6.077769399E-1,9.707681656E0
2.213780051E0,-2.859423161E-1,6.179464459E-1,9.698110580E0
2.216011191E0,-2.763710022E-1,6.131607890E-1,9.698110580E0
2.218247642E0,-2.865405083E-1,6.083751321E-1,9.731609344E0
2.220483482E0,-2.865405083E-1,5.892325640E-1,9.712467194E0
2.222720298E0,-2.721835673E-1,5.982056856E-1,9.712467194E0
2.224956992E0,-2.913261652E-1,5.844469070E-1,9.698110580E0
2.227191794E0,-2.721835673E-1,5.982056856E-1,9.712467194E0
2.229415122E0,-2.817548811E-1,5.892325640E-1,9.731609344E0
2.231655173E0,-2.913261652E-1,6.035895348E-1,9.726823807E0
2.233902000E0,-2.913261652E-1,6.035895348E-1,9.722038269E0
2.236141501E0,-2.865405083E-1,5.940182209E-1,9.722038269E0
2.238378073E0,-3.008974493E-1,5.988038778E-1,9.745966911E0
2.240611655E0,-2.865405083E-1,5.892325640E-1,9.745966911E0
2.242845054E0,-2.817548811E-1,5.886343718E-1,9.760323524E0
2.245072288E0,-2.823530734E-1,5.838487148E-1,9.760323524E0
2.247320945E0,-2.919243574E-1,5.694918036E-1,9.803394318E0
2.249558433E0,-2.781656384E-1,5.694918036E-1,9.822537422E0
2.251796591E0,-2.590230405E-1,5.784648657E-1,9.836894035E0
2.254027853E0,-2.632105052E-1,6.071787477E-1,9.836894035E0
2.256256858E0,-2.727817893E-1,5.976074338E-1,9.846465111E0
2.258502830E0,-2.877369225E-1,5.886343718E-1,9.855438232E0
2.260739402E0,-2.829512656E-1,5.928218365E-1,9.879366875E0
2.262978232E0,-2.685943544E-1,6.071787477E-1,9.898509026E0
2.265212363E0,-2.691925466E-1,5.880361795E-1,9.917651176E0
2.267449729E0,-2.644068897E-1,5.778666735E-1,9.927223206E0
2.269684653E0,-2.691925466E-1,5.730810165E-1,9.946365356E0
2.271918540E0,-2.596212626E-1,5.730810165E-1,9.927223206E0
2.274145530E0,-2.739782035E-1,5.593222976E-1,9.932008743E0
2.276394187E0,-2.452643216E-1,5.539384484E-1,9.927821159E0
2.278630454E0,-2.458625287E-1,5.395814776E-1,9.932606697E0
2.280870018E0,-2.309073806E-1,5.587241054E-1,9.903892517E0
2.283103660E0,-2.165504545E-1,5.491527915E-1,9.879964828E0
2.285340964E0,-2.207378894E-1,5.635097623E-1,9.836894035E0
2.287573264E0,-2.261217386E-1,5.300102234E-1,9.823135376E0
2.289800620E0,-2.153540403E-1,5.730810165E-1,9.808777809E0
2.292048667E0,-2.249253243E-1,5.641079545E-1,9.770493507E0
2.294285484E0,-2.015953064E-1,5.347958803E-1,9.765707016E0
2.296524864E0,-2.249253243E-1,5.641079545E-1,9.760921478E0
2.298758445E0,-2.153540403E-1,5.497509837E-1,9.746564865E0
2.300995017E0,-2.344966233E-1,5.593222976E-1,9.751350403E0
2.303232322E0,-2.338984162E-1,5.641079545E-1,9.722636223E0
2.305467673E0,-2.338984162E-1,5.688936114E-1,9.727422714E0
2.307701255E0,-2.482553422E-1,5.790630579E-1,9.708279610E0
2.309925376E0,-2.721835673E-1,5.694918036E-1,9.722038269E0
2.312165122E0,-2.721835673E-1,5.647061467E-1,9.712467194E0
2.314413108E0,-3.008974493E-1,5.605186820E-1,9.693324089E0
2.316652426E0,-2.913261652E-1,5.796613097E-1,9.707681656E0
2.318889060E0,-3.194418252E-1,5.946164131E-1,9.693324089E0
2.321123618E0,-3.008974493E-1,5.892325640E-1,9.693324089E0
2.323358787E0,-3.152543902E-1,5.940182209E-1,9.717252731E0
2.325595603E0,-3.056831062E-1,5.988038778E-1,9.707681656E0
2.327832298E0,-2.955136001E-1,6.131607890E-1,9.698110580E0
2.330068015E0,-2.907279432E-1,6.083751321E-1,9.712467194E0
2.332304588E0,-2.907279432E-1,6.131607890E-1,9.698110580E0
2.334540855E0,-2.907279432E-1,6.131607890E-1,9.722038269E0
2.336777549E0,-2.955136001E-1,6.179464459E-1,9.736394882E0
2.339013389E0,-2.763710022E-1,6.269195080E-1,9.741181374E0
2.341243614E0,-2.763710022E-1,6.125625968E-1,9.726823807E0
2.343486167E0,-2.769692242E-1,6.029912829E-1,9.736394882E0
2.345722434E0,-2.769692242E-1,6.029912829E-1,9.736394882E0
2.347960899E0,-2.865405083E-1,6.077769399E-1,9.741181374E0
2.350195762E0,-2.673979402E-1,6.029912829E-1,9.736394882E0
2.352432273E0,-2.428714931E-1,6.167500615E-1,9.741181374E0
2.354668845E0,-2.721835673E-1,6.077769399E-1,9.726823807E0
2.356906089E0,-2.626122832E-1,6.029912829E-1,9.736394882E0
2.359141196E0,-2.578266263E-1,5.934200287E-1,9.741181374E0
2.361377769E0,-2.338984162E-1,5.832505226E-1,9.727422714E0
2.363613853E0,-2.386840582E-1,5.928218365E-1,9.732208252E0
2.365850730E0,-2.243271172E-1,5.832505226E-1,9.722636223E0
2.368086997E0,-2.386840582E-1,5.832505226E-1,9.722636223E0
2.370323325E0,-2.291127741E-1,5.688936114E-1,9.703494072E0
2.372559958E0,-2.243271172E-1,5.736792088E-1,9.703494072E0
2.374797385E0,-2.338984162E-1,5.790630579E-1,9.693922997E0
2.377032310E0,-2.428714931E-1,5.934200287E-1,9.689137459E0
2.379268943E0,-2.434697002E-1,5.790630579E-1,9.698708534E0
2.381505210E0,-2.524427772E-1,5.886343718E-1,9.684351921E0
2.383742149E0,-2.338984162E-1,5.742774606E-1,9.684351921E0
2.385978477E0,-2.482553422E-1,5.790630579E-1,9.679565430E0
2.388214927E0,-2.572284341E-1,5.742774606E-1,9.660423279E0
2.390451316E0,-2.769692242E-1,5.748756528E-1,9.665208817E0
2.392688743E0,-2.715853751E-1,5.988038778E-1,9.665208817E0
2.394923606E0,-2.667997181E-1,5.940182209E-1,9.669994354E0
2.397160544E0,-2.859423161E-1,6.083751321E-1,9.664610863E0
2.399397483E0,-2.757728100E-1,6.179464459E-1,9.655637741E0
2.401633201E0,-2.805584669E-1,6.323033571E-1,9.646066666E0
2.403869468E0,-2.853440940E-1,6.323033571E-1,9.664610863E0
2.406102561E0,-2.709871531E-1,6.418746710E-1,9.669396400E0
2.408330710E0,-2.901297510E-1,6.323033571E-1,9.640682220E0
2.410579917E0,-2.853440940E-1,6.323033571E-1,9.659825325E0
2.412815147E0,-2.853440940E-1,6.323033571E-1,9.650253296E0
2.415054832E0,-2.811566591E-1,6.227321029E-1,9.678967476E0
2.417287681E0,-2.709871531E-1,6.466603279E-1,9.665208817E0
2.419524619E0,-2.566302419E-1,6.269195080E-1,9.684351921E0
2.421761069E0,-2.709871531E-1,6.275177598E-1,9.674779892E0
2.423997459E0,-2.476571500E-1,6.221339107E-1,9.689137459E0
2.426234031E0,-2.476571500E-1,6.269195080E-1,9.698708534E0
2.428471336E0,-2.476571500E-1,6.077769399E-1,9.722636223E0
2.430706870E0,-2.620140910E-1,6.221339107E-1,9.712467194E0
2.432940024E0,-2.620140910E-1,6.221339107E-1,9.731609344E0
2.435167320E0,-2.476571500E-1,6.311069727E-1,9.745966911E0
2.437415794E0,-2.333002090E-1,6.263213158E-1,9.746564865E0
2.439650535E0,-2.386840582E-1,6.167500615E-1,9.765109062E0
2.441882163E0,-2.338984162E-1,6.119644046E-1,9.760921478E0
2.444114341E0,-2.380858511E-1,6.311069727E-1,9.760323524E0
2.446362388E0,-2.333002090E-1,6.358926296E-1,9.769894600E0
2.448599387E0,-2.291127741E-1,6.215356588E-1,9.808179855E0
2.450836814E0,-2.434697002E-1,6.454638839E-1,9.798608780E0
2.453067405E0,-2.434697002E-1,6.215356588E-1,9.803394318E0
2.455295066E0,-2.482553422E-1,6.167500615E-1,9.779465675E0
2.457539572E0,-2.626122832E-1,6.167500615E-1,9.793823242E0
2.459760825E0,-2.482553422E-1,6.454638839E-1,9.812965393E0
2.462007774E0,-2.386840582E-1,6.263213158E-1,9.798608780E0
2.464253745E0,-2.524427772E-1,6.454638839E-1,9.774680138E0
2.466493186E0,-2.620140910E-1,6.317051649E-1,9.765109062E0
2.468728965E0,-2.626122832E-1,6.269195080E-1,9.769894600E0
2.470960044E0,-2.620140910E-1,6.556333899E-1,9.774680138E0
2.473186668E0,-2.620140910E-1,6.556333899E-1,9.769894600E0
2.475434898E0,-2.620140910E-1,6.412764788E-1,9.774680138E0
2.477667991E0,-2.620140910E-1,6.508477330E-1,9.774680138E0
2.479896201E0,-2.811566591E-1,6.508477330E-1,9.760323524E0
2.482130759E0,-2.859423161E-1,6.460621357E-1,9.760323524E0
2.484369041E0,-2.763710022E-1,6.317051649E-1,9.755537987E0
2.486619957E0,-2.907279432E-1,6.562315822E-1,9.745966911E0
2.488855796E0,-3.098705411E-1,6.610172391E-1,9.740582466E0
2.491089805E0,-3.098705411E-1,6.466603279E-1,9.726225853E0
2.493314048E0,-3.242274821E-1,6.520441771E-1,9.726225853E0
2.495562583E0,-3.236292601E-1,6.472585201E-1,9.697511673E0
2.497795920E0,-3.242274821E-1,6.376872063E-1,9.707083702E0
2.500027549E0,-3.475574851E-1,6.616154313E-1,9.687940598E0
2.502271873E0,-3.427718580E-1,6.664010882E-1,9.668798447E0
2.504508445E0,-3.475574851E-1,6.622136831E-1,9.664012909E0
2.506747153E0,-3.469592929E-1,6.717849374E-1,9.649655342E0
2.508979758E0,-3.373879790E-1,6.664010882E-1,9.649655342E0
2.511214744E0,-3.517449200E-1,6.717849374E-1,9.649655342E0
2.513460044E0,-3.469592929E-1,6.669993401E-1,9.649655342E0
2.515690452E0,-3.469592929E-1,6.717849374E-1,9.664012909E0
2.517929099E0,-3.565305769E-1,6.765705943E-1,9.635298729E0
2.520158408E0,-3.613162339E-1,6.813562512E-1,9.673583984E0
2.522387595E0,-3.565305769E-1,6.813562512E-1,9.687940598E0
2.524635520E0,-3.379862010E-1,6.568298340E-1,9.683155060E0
2.526872398E0,-3.188436031E-1,6.568298340E-1,9.683753014E0
2.529111473E0,-3.236292601E-1,6.472585201E-1,9.692726135E0
2.531345054E0,-3.332005441E-1,6.664010882E-1,9.692726135E0
2.533581626E0,-3.332005441E-1,6.568298340E-1,9.707083702E0
2.535818992E0,-3.194418252E-1,6.418746710E-1,9.731011391E0
2.538051352E0,-3.188436031E-1,6.610172391E-1,9.726225853E0
2.540279136E0,-3.194418252E-1,6.514459848E-1,9.740582466E0
2.542527671E0,-2.901297510E-1,6.699903607E-1,9.750752449E0
2.544763511E0,-3.092723191E-1,6.562315822E-1,9.731011391E0
2.547002890E0,-3.098705411E-1,6.610172391E-1,9.745368004E0
2.549236472E0,-3.188436031E-1,6.658028960E-1,9.735796928E0
2.551473044E0,-3.098705411E-1,6.514459848E-1,9.745368004E0
2.553710349E0,-3.290131092E-1,6.610172391E-1,9.759725571E0
2.555945640E0,-3.236292601E-1,6.705885530E-1,9.740582466E0
2.558182273E0,-3.433700502E-1,6.616154313E-1,9.759725571E0
2.560418296E0,-3.337987661E-1,6.664010882E-1,9.759725571E0
2.562654868E0,-3.427718580E-1,6.951149702E-1,9.783653259E0
2.564891196E0,-3.379862010E-1,6.807580590E-1,9.769296646E0
2.567127769E0,-3.475574851E-1,6.903293133E-1,9.787840843E0
2.569364402E0,-3.529413342E-1,6.951149702E-1,9.797411919E0
2.571601707E0,-3.577269912E-1,6.759724021E-1,9.768698692E0
2.573836997E0,-3.571287692E-1,7.094719410E-1,9.802198410E0
2.576070700E0,-3.571287692E-1,6.951149702E-1,9.768698692E0
2.578298850E0,-3.571287692E-1,6.999006271E-1,9.773484230E0
2.580545982E0,-3.667000830E-1,6.903293133E-1,9.763913155E0
2.582782615E0,-3.619144261E-1,6.855437160E-1,9.754341125E0
2.585021750E0,-3.762713671E-1,6.861419082E-1,9.739984512E0
2.587255515E0,-3.379862010E-1,6.759724021E-1,9.754940033E0
2.589492759E0,-3.571287692E-1,6.711867452E-1,9.740582466E0
2.591728111E0,-3.577269912E-1,6.424728632E-1,9.759725571E0
2.593964744E0,-3.481557071E-1,6.424728632E-1,9.774082184E0
2.596200828E0,-3.678964674E-1,6.233302951E-1,9.787840843E0
2.598437644E0,-3.780659735E-1,5.760720372E-1,9.773484230E0
2.600673911E0,-3.397808075E-1,5.802595019E-1,9.764511108E0
2.602911643E0,-3.014956415E-1,5.700899959E-1,9.755537987E0
2.605149558E0,-3.206382394E-1,5.557330847E-1,9.774082184E0
2.607372642E0,-3.110669553E-1,5.700899959E-1,9.774082184E0
2.609619529E0,-3.349951804E-1,5.653043389E-1,9.783653259E0
2.611855002E0,-3.493520916E-1,5.754738450E-1,9.783653259E0
2.614096213E0,-3.355933726E-1,5.605186820E-1,9.798010826E0
2.616328696E0,-3.690928817E-1,5.563312769E-1,9.792626381E0
2.618565025E0,-3.302095234E-1,5.844469070E-1,9.798010826E0
2.620801353E0,-3.445664644E-1,5.988038778E-1,9.826126099E0
2.623038535E0,-3.589234054E-1,6.233302951E-1,9.821340561E0
2.625275779E0,-3.439682424E-1,6.275177598E-1,9.811769485E0
2.627510947E0,-3.493520916E-1,6.227321029E-1,9.821340561E0
2.629747581E0,-3.631108403E-1,6.376872063E-1,9.797411919E0
2.631983177E0,-3.631108403E-1,6.472585201E-1,9.816555023E0
2.634220115E0,-3.966103494E-1,6.574280262E-1,9.806983948E0
2.636456565E0,-3.726821244E-1,6.568298340E-1,9.806983948E0
2.638693015E0,-3.960121572E-1,6.813562512E-1,9.820742607E0
2.640929526E0,-3.912265003E-1,6.855437160E-1,9.835099220E0
2.643166587E0,-3.864408433E-1,6.999006271E-1,9.839884758E0
2.645402183E0,-3.768695593E-1,6.951149702E-1,9.840482712E0
2.647635520E0,-3.672982752E-1,7.238288522E-1,9.845269203E0
2.649862693E0,-3.810569942E-1,7.238288522E-1,9.835099220E0
2.652111350E0,-3.864408433E-1,7.142575383E-1,9.826126099E0
2.654347556E0,-3.762713671E-1,7.190431952E-1,9.816555023E0
2.656587303E0,-3.475574851E-1,7.040880919E-1,9.806983948E0
2.658820701E0,-3.379862010E-1,7.088736892E-1,9.797411919E0
2.661058311E0,-3.427718580E-1,7.136593461E-1,9.806983948E0
2.663293601E0,-3.188436031E-1,7.088736892E-1,9.802796364E0
2.665530173E0,-3.140579760E-1,6.993024349E-1,9.793225288E0
2.667765829E0,-3.044866920E-1,7.040880919E-1,9.783653259E0
2.670002219E0,-3.092723191E-1,6.945167780E-1,9.783653259E0
2.672235740E0,-2.853440940E-1,6.795616150E-1,9.769296646E0
2.674463218E0,-2.955136001E-1,6.747759581E-1,9.769296646E0
2.676712180E0,-2.955136001E-1,6.556333899E-1,9.769296646E0
2.678949668E0,-2.811566591E-1,6.604190469E-1,9.779465675E0
2.681188011E0,-2.620140910E-1,6.412764788E-1,9.750752449E0
2.683421531E0,-2.715853751E-1,6.460621357E-1,9.745966911E0
2.685658286E0,-2.572284341E-1,6.412764788E-1,9.741181374E0
2.687894065E0,-2.620140910E-1,6.364908218E-1,9.736394882E0
2.690130271E0,-2.476571500E-1,6.412764788E-1,9.722636223E0
2.692366783E0,-2.428714931E-1,6.317051649E-1,9.703494072E0
2.694603355E0,-2.333002090E-1,5.982056856E-1,9.693922997E0
2.696840659E0,-2.333002090E-1,6.125625968E-1,9.679565430E0
2.699075706E0,-2.279163599E-1,6.269195080E-1,9.674779892E0
2.701312400E0,-2.141576260E-1,6.167500615E-1,9.674779892E0
2.703548667E0,-2.374876440E-1,6.173482537E-1,9.641280174E0
2.705785300E0,-2.279163599E-1,6.029912829E-1,9.622735977E0
2.708021568E0,-2.231307179E-1,6.125625968E-1,9.636494637E0
2.710257896E0,-2.327020019E-1,6.125625968E-1,9.631709099E0
2.712494773E0,-2.614158690E-1,6.131607890E-1,9.641280174E0
2.714732078E0,-2.662015259E-1,6.083751321E-1,9.626923561E0
2.716967490E0,-2.662015259E-1,6.083751321E-1,9.636494637E0
2.719204002E0,-2.662015259E-1,6.035895348E-1,9.626923561E0
2.721440025E0,-2.715853751E-1,5.988038778E-1,9.641280174E0
2.723676597E0,-2.667997181E-1,6.035895348E-1,9.674779892E0
2.725909995E0,-2.811566591E-1,6.227321029E-1,9.683753014E0
2.728134848E0,-3.002992272E-1,6.035895348E-1,9.688538551E0
2.730374412E0,-2.907279432E-1,6.035895348E-1,9.702896118E0
2.732623374E0,-2.811566591E-1,6.179464459E-1,9.722038269E0
2.734861351E0,-2.817548811E-1,6.083751321E-1,9.726823807E0
2.737096885E0,-2.913261652E-1,5.988038778E-1,9.750752449E0
2.739327292E0,-3.194418252E-1,6.131607890E-1,9.726225853E0
2.741566306E0,-3.056831062E-1,5.988038778E-1,9.750752449E0
2.743804404E0,-3.152543902E-1,5.940182209E-1,9.759725571E0
2.746041709E0,-3.152543902E-1,6.035895348E-1,9.769296646E0
2.748277610E0,-3.152543902E-1,6.131607890E-1,9.764511108E0
2.750514487E0,-3.349951804E-1,6.035895348E-1,9.788438797E0
2.752749839E0,-3.302095234E-1,5.940182209E-1,9.778867722E0
2.754986716E0,-3.104687333E-1,6.179464459E-1,9.793225288E0
2.757220481E0,-3.248256743E-1,6.227321029E-1,9.788438797E0
2.759447105E0,-3.391826153E-1,6.185446382E-1,9.783653259E0
2.761695457E0,-3.391826153E-1,6.185446382E-1,9.774082184E0
2.763931968E0,-3.529413342E-1,6.424728632E-1,9.774082184E0
2.766171653E0,-3.535395563E-1,6.424728632E-1,9.788438797E0
2.768406089E0,-3.720839322E-1,6.520441771E-1,9.778269768E0
2.770640952E0,-3.672982752E-1,6.568298340E-1,9.792626381E0
2.772877647E0,-4.013960063E-1,6.478567123E-1,9.797411919E0
2.775113364E0,-4.061816335E-1,6.526423693E-1,9.806983948E0
2.777351707E0,-4.007977843E-1,6.669993401E-1,9.811769485E0
2.779586753E0,-4.013960063E-1,6.334998012E-1,9.816555023E0
2.781823508E0,-4.163511395E-1,6.287141442E-1,9.835099220E0
2.784059714E0,-4.211367965E-1,6.239284873E-1,9.820742607E0
2.786298300E0,-4.259224236E-1,6.000002623E-1,9.830313683E0
2.788535728E0,-4.019941986E-1,6.143572330E-1,9.816555023E0
2.790768882E0,-4.163511395E-1,6.095715761E-1,9.839884758E0
2.793004905E0,-4.067798555E-1,6.143572330E-1,9.844670296E0
2.795240988E0,-3.924229145E-1,6.281159520E-1,9.840482712E0
2.797478172E0,-4.073780477E-1,6.000002623E-1,9.849455833E0
2.799711753E0,-3.643072546E-1,5.850451589E-1,9.859625816E0
2.801939353E0,-3.834498227E-1,5.946164131E-1,9.859625816E0
2.804184226E0,-3.972085714E-1,6.047859192E-1,9.840482712E0
2.806406272E0,-3.834498227E-1,5.802595019E-1,9.840482712E0
2.808662986E0,-3.690928817E-1,5.754738450E-1,9.821340561E0
2.810896324E0,-3.505485058E-1,5.509474277E-1,9.845269203E0
2.813137534E0,-3.690928817E-1,5.563312769E-1,9.826126099E0
2.815369529E0,-3.499503136E-1,5.419743061E-1,9.812367439E0
2.817602500E0,-3.403790295E-1,5.700899959E-1,9.812367439E0
2.819826255E0,-3.451646566E-1,5.509474277E-1,9.817152977E0
2.822067954E0,-3.589234054E-1,5.802595019E-1,9.811769485E0
2.824315025E0,-3.541377485E-1,5.754738450E-1,9.778867722E0
2.826554954E0,-3.637090325E-1,5.611169338E-1,9.769296646E0
2.828791648E0,-3.684946895E-1,5.706881881E-1,9.764511108E0
2.831024558E0,-3.487538993E-1,5.994020700E-1,9.759725571E0
2.833260886E0,-3.637090325E-1,5.898307562E-1,9.759725571E0
2.835496909E0,-3.535395563E-1,6.137589812E-1,9.754940033E0
2.837730735E0,-3.631108403E-1,6.089733839E-1,9.735796928E0
2.839959068E0,-3.481557071E-1,6.424728632E-1,9.721440315E0
2.842206382E0,-3.385843933E-1,6.233302951E-1,9.711869240E0
2.844442710E0,-3.433700502E-1,6.329016089E-1,9.726225853E0
2.846681845E0,-3.385843933E-1,6.424728632E-1,9.711869240E0
2.848915855E0,-3.385843933E-1,6.472585201E-1,9.721440315E0
2.851152000E0,-3.332005441E-1,6.472585201E-1,9.697511673E0
2.853388572E0,-3.188436031E-1,6.616154313E-1,9.688538551E0
2.855625144E0,-3.284149170E-1,6.472585201E-1,9.692726135E0
2.857863486E0,-3.236292601E-1,6.472585201E-1,9.678967476E0
2.860100913E0,-3.188436031E-1,6.376872063E-1,9.674181938E0
2.862334068E0,-3.140579760E-1,6.329016089E-1,9.655039787E0
2.864570091E0,-2.997010350E-1,6.323033571E-1,9.678967476E0
2.866806113E0,-2.901297510E-1,6.562315822E-1,9.693324089E0
2.869043113E0,-2.901297510E-1,6.418746710E-1,9.678967476E0
2.871279379E0,-2.949153781E-1,6.275177598E-1,9.678967476E0
2.873514304E0,-2.805584669E-1,6.514459848E-1,9.669396400E0
2.875753806E0,-2.997010350E-1,6.705885530E-1,9.683753014E0
2.877988853E0,-2.757728100E-1,6.610172391E-1,9.683753014E0
2.880225974E0,-2.853440940E-1,6.466603279E-1,9.702896118E0
2.882461509E0,-2.757728100E-1,6.412764788E-1,9.707681656E0
2.884698325E0,-2.757728100E-1,6.705885530E-1,9.693324089E0
2.886934470E0,-2.805584669E-1,6.610172391E-1,9.707681656E0
2.889171226E0,-2.847459018E-1,6.849454641E-1,9.693324089E0
2.891407615E0,-2.853440940E-1,6.705885530E-1,9.702896118E0
2.893645164E0,-2.997010350E-1,6.562315822E-1,9.678967476E0
2.895880210E0,-2.853440940E-1,6.418746710E-1,9.664610863E0
2.898117148E0,-2.895315289E-1,6.610172391E-1,9.650253296E0
2.900354148E0,-3.086741269E-1,6.711867452E-1,9.655039787E0
2.902589927E0,-2.895315289E-1,6.753742099E-1,9.650253296E0
2.904825767E0,-2.985046208E-1,6.855437160E-1,9.626325607E0
2.907062034E0,-2.937189937E-1,6.903293133E-1,9.626325607E0
2.909295859E0,-3.128615618E-1,6.759724021E-1,9.597611427E0
2.911524314E0,-3.278166950E-1,6.574280262E-1,9.597611427E0
2.913771568E0,-3.224328458E-1,6.669993401E-1,9.588040352E0
2.916007957E0,-3.326023519E-1,6.526423693E-1,9.578469276E0
2.918247275E0,-3.613162339E-1,6.436693072E-1,9.568898201E0
2.920481040E0,-3.469592929E-1,6.430711150E-1,9.588040352E0
2.922717185E0,-3.756731451E-1,6.293123364E-1,9.582656860E0
2.924953696E0,-3.756731451E-1,6.484549642E-1,9.563513756E0
2.927190269E0,-3.900300860E-1,6.293123364E-1,9.587442398E0
2.929427634E0,-3.906283081E-1,6.101697683E-1,9.577870369E0
2.931662986E0,-3.948157430E-1,6.251249313E-1,9.582656860E0
2.933899497E0,-4.241278172E-1,6.011967063E-1,9.601799011E0
2.936135276E0,-4.049852192E-1,6.251249313E-1,9.597013474E0
2.938372153E0,-4.193421602E-1,6.107679605E-1,9.601799011E0
2.940609458E0,-4.049852192E-1,6.107679605E-1,9.620942116E0
2.942845115E0,-4.295116663E-1,5.868397355E-1,9.620343208E0
2.945081748E0,-4.199403822E-1,5.820540786E-1,9.649057388E0
2.947318687E0,-4.061816335E-1,5.814558864E-1,9.673583984E0
2.949554038E0,-4.109672904E-1,5.862415433E-1,9.692128181E0
2.951790611E0,-4.115654826E-1,5.670989752E-1,9.730413437E0
2.954026695E0,-4.067798555E-1,5.575276613E-1,9.739984512E0
2.956260581E0,-4.073780477E-1,5.617151260E-1,9.773484230E0
2.958487876E0,-3.972085714E-1,5.521438122E-1,9.749555588E0
2.960736228E0,-3.930211067E-1,5.377869010E-1,9.763913155E0
2.962973105E0,-4.169493318E-1,5.383850932E-1,9.759127617E0
2.965213584E0,-4.073780477E-1,5.186443329E-1,9.768698692E0
2.967445701E0,-3.930211067E-1,5.521438122E-1,9.763913155E0
2.969682212E0,-3.876372576E-1,5.521438122E-1,9.754341125E0
2.971918968E0,-4.025924206E-1,5.377869010E-1,9.754341125E0
2.974153220E0,-3.876372576E-1,5.425725579E-1,9.735796928E0
2.976384544E0,-4.259224236E-1,5.623133183E-1,9.716055870E0
2.978624167E0,-4.307080805E-1,5.527420044E-1,9.716055870E0
2.980849692E0,-4.253242314E-1,5.676971674E-1,9.687342644E0
2.983091392E0,-4.247260094E-1,5.964110494E-1,9.672985077E0
2.985334128E0,-4.348955154E-1,5.868397355E-1,9.682557106E0
2.987561301E0,-4.444667995E-1,5.820540786E-1,9.663414001E0
2.989800376E0,-4.630111754E-1,6.065805554E-1,9.658628464E0
2.992045921E0,-5.156532526E-1,6.215356588E-1,9.658030510E0
2.994285301E0,-5.443671346E-1,6.029912829E-1,9.610174179E0
2.996521933E0,-4.911268353E-1,6.167500615E-1,9.586843491E0
2.998752829E0,-4.426721931E-1,6.305087805E-1,9.534799576E0
3.000981162E0,-4.181457460E-1,6.640082598E-1,9.525228500E0
3.003225486E0,-4.091726840E-1,6.490531564E-1,9.553942680E0
3.005452964E0,-4.474578202E-1,6.448656917E-1,9.582057953E0
3.007700706E0,-4.570291340E-1,6.496513486E-1,9.610772133E0
3.009925315E0,-4.666004181E-1,6.687939167E-1,9.625128746E0
3.012176596E0,-4.187439680E-1,6.819544435E-1,9.658628464E0
3.014410239E0,-4.241278172E-1,6.675975323E-1,9.696913719E0
3.016649925E0,-3.810569942E-1,6.622136831E-1,9.706484795E0
3.018884422E0,-3.236292601E-1,6.616154313E-1,9.721440315E0
3.021119468E0,-3.337987661E-1,6.658028960E-1,9.759725571E0
3.023355796E0,-3.242274821E-1,6.705885530E-1,9.807581902E0
3.025591880E0,-3.296113312E-1,6.562315822E-1,9.821938515E0
3.027829002E0,-3.337987661E-1,6.849454641E-1,9.835697174E0
3.030065330E0,-3.242274821E-1,6.993024349E-1,9.826724052E0
3.032301597E0,-3.146561682E-1,6.987041831E-1,9.826724052E0
3.034537864E0,-3.098705411E-1,7.034898400E-1,9.836296082E0
3.036775169E0,-3.050848842E-1,7.082754970E-1,9.845867157E0
3.039010642E0,-2.859423161E-1,7.268198729E-1,9.874580383E0
3.041246421E0,-2.997010350E-1,7.274180651E-1,9.826724052E0
3.043476096E0,-3.140579760E-1,7.274180651E-1,9.826724052E0
3.045707908E0,-3.038884699E-1,7.322037220E-1,9.793225288E0
3.047956260E0,-2.997010350E-1,7.322037220E-1,9.802796364E0
3.050193564E0,-3.092723191E-1,7.226324677E-1,9.807581902E0
3.052432578E0,-2.901297510E-1,7.322037220E-1,9.807581902E0
3.054666648E0,-2.997010350E-1,7.130611539E-1,9.812367439E0
3.056902305E0,-2.949153781E-1,7.226324677E-1,9.807581902E0
3.059138511E0,-3.086741269E-1,7.417750359E-1,9.793225288E0
3.061374595E0,-2.949153781E-1,7.274180651E-1,9.802796364E0
3.063611167E0,-2.901297510E-1,7.226324677E-1,9.798010826E0
3.065847800E0,-2.799602449E-1,7.417750359E-1,9.788438797E0
3.068084312E0,-2.656033039E-1,7.411768436E-1,9.793225288E0
3.070317771E0,-2.662015259E-1,7.220342159E-1,9.798010826E0
3.072546226E0,-2.608176768E-1,7.316055298E-1,9.798608780E0
3.074793235E0,-2.757728100E-1,7.034898400E-1,9.798010826E0
3.077029624E0,-2.614158690E-1,7.172485590E-1,9.793823242E0
3.079268698E0,-2.518445849E-1,7.220342159E-1,9.808179855E0
3.081502830E0,-2.757728100E-1,7.130611539E-1,9.812367439E0
3.083739158E0,-2.805584669E-1,7.082754970E-1,9.817152977E0
3.085975486E0,-2.662015259E-1,7.172485590E-1,9.821938515E0
3.088211936E0,-2.662015259E-1,7.172485590E-1,9.841081619E0
3.090449058E0,-2.572284341E-1,7.076773047E-1,9.855438232E0
3.092684714E0,-2.715853751E-1,6.933203340E-1,9.850652695E0
3.094921226E0,-2.763710022E-1,6.885347366E-1,9.865009308E0
3.097157188E0,-3.050848842E-1,6.891329288E-1,9.865009308E0
3.099394187E0,-2.865405083E-1,6.741777658E-1,9.874580383E0
3.101630515E0,-2.961117923E-1,6.747759581E-1,9.884152412E0
3.103867027E0,-2.865405083E-1,6.741777658E-1,9.860223770E0
3.106103049E0,-2.871387303E-1,6.406782866E-1,9.874580383E0
3.108338034E0,-2.721835673E-1,6.598208547E-1,9.874580383E0
3.110566428E0,-2.823530734E-1,6.406782866E-1,9.884152412E0
3.112812644E0,-2.961117923E-1,6.556333899E-1,9.879366875E0
3.115049400E0,-2.919243574E-1,6.412764788E-1,9.860223770E0
3.117287375E0,-2.967100143E-1,6.412764788E-1,9.869794846E0
3.119521629E0,-3.056831062E-1,6.556333899E-1,9.845867157E0
3.121757957E0,-3.158525825E-1,6.269195080E-1,9.845867157E0
3.123994834E0,-3.104687333E-1,6.269195080E-1,9.826724052E0
3.126232017E0,-3.110669553E-1,6.221339107E-1,9.826724052E0
3.128467063E0,-3.110669553E-1,6.173482537E-1,9.836296082E0
3.130703452E0,-3.152543902E-1,6.323033571E-1,9.817152977E0
3.132936790E0,-3.200400174E-1,6.083751321E-1,9.793225288E0
3.135164634E0,-3.391826153E-1,6.179464459E-1,9.783653259E0
3.137412742E0,-3.343969584E-1,6.137589812E-1,9.764511108E0
3.139648581E0,-3.487538993E-1,6.137589812E-1,9.759725571E0
3.141886131E0,-3.631108403E-1,6.191428304E-1,9.731011391E0
3.144123191E0,-3.720839322E-1,6.382854581E-1,9.726225853E0
3.146358543E0,-3.625126183E-1,6.526423693E-1,9.726225853E0
3.148595786E0,-3.768695593E-1,6.478567123E-1,9.707083702E0
3.150831199E0,-3.720839322E-1,6.430711150E-1,9.721440315E0
3.153064963E0,-3.720839322E-1,6.287141442E-1,9.687940598E0
3.155292136E0,-3.864408433E-1,6.430711150E-1,9.701699257E0
3.157537437E0,-3.810569942E-1,6.382854581E-1,9.668798447E0
3.159760520E0,-3.954139352E-1,6.436693072E-1,9.687342644E0
3.162005516E0,-3.816552162E-1,6.382854581E-1,9.692726135E0
3.164249595E0,-3.720839322E-1,6.191428304E-1,9.668798447E0
3.166489829E0,-3.619144261E-1,6.382854581E-1,9.678369522E0
3.168725241E0,-3.379862010E-1,6.329016089E-1,9.659226418E0
3.170959129E0,-3.529413342E-1,6.239284873E-1,9.687940598E0
3.173195396E0,-3.481557071E-1,6.191428304E-1,9.683155060E0
3.175432029E0,-3.672982752E-1,6.287141442E-1,9.707083702E0
3.177665610E0,-3.481557071E-1,6.233302951E-1,9.702297211E0
3.179890952E0,-3.625126183E-1,6.239284873E-1,9.678369522E0
3.182129295E0,-3.481557071E-1,6.185446382E-1,9.716654778E0
3.184378074E0,-3.391826153E-1,6.137589812E-1,9.726225853E0
3.186617819E0,-3.433700502E-1,6.137589812E-1,9.707083702E0
3.188853476E0,-3.337987661E-1,6.281159520E-1,9.711869240E0
3.191087058E0,-3.242274821E-1,6.281159520E-1,9.711869240E0
3.193323264E0,-3.385843933E-1,6.281159520E-1,9.692726135E0
3.195559775E0,-3.475574851E-1,6.334998012E-1,9.683155060E0
3.197794455E0,-3.379862010E-1,6.329016089E-1,9.673583984E0
3.200020530E0,-3.469592929E-1,6.622136831E-1,9.644869804E0
3.202265708E0,-3.571287692E-1,6.382854581E-1,9.644869804E0
3.204491905E0,-3.661018610E-1,6.478567123E-1,9.625727654E0
3.206744529E0,-3.762713671E-1,6.484549642E-1,9.640084267E0
3.208978172E0,-3.756731451E-1,6.388836503E-1,9.601799011E0
3.211217918E0,-3.756731451E-1,6.484549642E-1,9.611370087E0
3.213451072E0,-3.619144261E-1,6.334998012E-1,9.630513191E0
3.215688316E0,-3.619144261E-1,6.382854581E-1,9.625727654E0
3.217923667E0,-3.810569942E-1,6.245267391E-1,9.625727654E0
3.220160300E0,-3.571287692E-1,6.334998012E-1,9.635298729E0
3.222393394E0,-3.667000830E-1,6.239284873E-1,9.640084267E0
3.224618308E0,-3.762713671E-1,6.101697683E-1,9.625727654E0
3.226854819E0,-3.714857101E-1,6.287141442E-1,9.640084267E0
3.229094138E0,-3.864408433E-1,5.814558864E-1,9.640084267E0
3.231345664E0,-3.816552162E-1,5.958128572E-1,9.616155624E0
3.233582847E0,-4.007977843E-1,5.718846321E-1,9.616155624E0
3.235818016E0,-4.007977843E-1,5.623133183E-1,9.616155624E0
3.238051658E0,-4.103690982E-1,5.724828243E-1,9.606584549E0
3.240284995E0,-4.205385745E-1,5.437689424E-1,9.616155624E0
3.242512839E0,-4.396811724E-1,5.395814776E-1,9.601799011E0
3.244760825E0,-4.492524564E-1,5.300102234E-1,9.605986595E0
3.246997092E0,-4.683950245E-1,5.252245665E-1,9.596415520E0
3.249236717E0,-5.018945336E-1,5.306084156E-1,9.605986595E0
3.251472618E0,-4.881358147E-1,5.162515044E-1,9.620343208E0
3.253711814E0,-4.977070987E-1,5.018945336E-1,9.629914284E0
3.255943259E0,-5.174478889E-1,5.018945336E-1,9.653244972E0
3.258179954E0,-5.318048596E-1,5.018945336E-1,9.672387123E0
3.260414268E0,-5.318048596E-1,4.827519655E-1,9.686744690E0
3.262651939E0,-5.413761139E-1,5.018945336E-1,9.696315765E0
3.264888206E0,-5.467599630E-1,5.066801906E-1,9.729216576E0
3.267124961E0,-5.557330847E-1,5.216353536E-1,9.710074425E0
3.269361289E0,-5.509474277E-1,5.072783828E-1,9.719645500E0
3.271592063E0,-5.659025311E-1,5.024927258E-1,9.724431038E0
3.273833884E0,-5.557330847E-1,5.162515044E-1,9.738788605E0
3.276070091E0,-5.509474277E-1,5.353940725E-1,9.757930756E0
3.278308433E0,-5.461617708E-1,5.497509837E-1,9.738788605E0
3.280543601E0,-5.455635786E-1,5.736792088E-1,9.748359680E0
3.282779685E0,-5.551348329E-1,5.736792088E-1,9.738788605E0
3.285016562E0,-5.401797295E-1,6.119644046E-1,9.714859962E0
3.287253989E0,-5.545366406E-1,6.125625968E-1,9.705288887E0
3.289489158E0,-5.587241054E-1,6.406782866E-1,9.743574142E0
3.291725425E0,-5.491527915E-1,6.693921089E-1,9.762716293E0
3.293961509E0,-5.395814776E-1,6.741777658E-1,9.748359680E0
3.296198630E0,-5.300102234E-1,6.789634228E-1,9.748359680E0
3.298434959E0,-5.246263742E-1,7.022934556E-1,9.762716293E0
3.300671287E0,-5.437689424E-1,7.268198729E-1,9.766903877E0
3.302907798E0,-5.533402562E-1,7.316055298E-1,9.771689415E0
3.305145042E0,-5.772684813E-1,7.268198729E-1,9.776474953E0
3.307377219E0,-5.581258535E-1,7.459624410E-1,9.805189133E0
3.309604819E0,-5.479564071E-1,7.740781307E-1,9.824331284E0
3.311852867E0,-5.479564071E-1,7.932206988E-1,9.838688850E0
3.314089744E0,-5.383850932E-1,8.267202377E-1,9.867402077E0
3.316329063E0,-5.234299302E-1,8.500502706E-1,9.872187614E0
3.318562583E0,-5.186443329E-1,8.596215248E-1,9.881759644E0
3.320798972E0,-5.090730190E-1,8.691928387E-1,9.867402077E0
3.323036399E0,-4.851447940E-1,8.685946465E-1,9.881759644E0
3.325271323E0,-4.797609448E-1,8.638089895E-1,9.848857880E0
3.327508445E0,-4.941178858E-1,8.739784956E-1,9.848259926E0
3.329745200E0,-4.749752879E-1,8.829515576E-1,9.853643417E0
3.331981101E0,-4.797609448E-1,8.925228715E-1,9.839286804E0
3.334217124E0,-4.983053207E-1,9.170492887E-1,9.853045464E0
3.336450461E0,-4.983053207E-1,9.170492887E-1,9.843474388E0
3.338678245E0,-4.737788737E-1,9.547362328E-1,9.862616539E0
3.340927390E0,-4.450650215E-1,9.732806087E-1,9.853643417E0
3.343162986E0,-4.307080805E-1,9.589236975E-1,9.872786522E0
3.345402487E0,-4.109672904E-1,9.870393276E-1,9.858428955E0
3.347632346E0,-4.205385745E-1,9.876375198E-1,9.853643417E0
3.349859946E0,-4.157529473E-1,9.541380405E-1,9.787242889E0
3.352108543E0,-4.348955154E-1,9.451649189E-1,9.739386559E0
3.354345359E0,-4.109672904E-1,9.116654396E-1,9.681958199E0
3.356584739E0,-4.199403822E-1,8.979067206E-1,9.620343208E0
3.358818992E0,-3.816552162E-1,8.781659007E-1,9.592227936E0
3.361054221E0,-3.529413342E-1,8.638089895E-1,9.534799576E0
3.363290611E0,-3.523431420E-1,8.733802438E-1,9.516255379E0
3.365526695E0,-3.661018610E-1,9.020941257E-1,9.477372169E0
3.367760520E0,-3.708875179E-1,9.170492887E-1,9.463015556E0
3.369987937E0,-4.085744619E-1,9.272187948E-1,9.419944763E0
3.372236289E0,-4.468596280E-1,9.230313301E-1,9.381659508E0
3.374469260E0,-4.797609448E-1,9.332008362E-1,9.333204269E0
3.376701072E0,-5.180460811E-1,9.200403094E-1,9.290133476E0
3.378945396E0,-5.270192027E-1,9.391828775E-1,9.237491608E0
3.381182212E0,-5.790630579E-1,9.212366939E-1,9.165707588E0
3.383421347E0,-5.976074338E-1,9.361918569E-1,9.089137077E0
3.385654929E0,-6.119644046E-1,9.272187948E-1,9.065208435E0
3.387891196E0,-6.352944374E-1,9.373882413E-1,9.046066284E0
3.390127586E0,-6.777670383E-1,9.619147182E-1,8.992825508E0
3.392364646E0,-7.256234884E-1,9.672985673E-1,8.988039970E0
3.394601646E0,-7.292127013E-1,1.006181955E0,8.944969177E0
3.396836814E0,-7.531409264E-1,1.015753269E0,8.953942299E0
3.399073569E0,-7.866404653E-1,1.049850941E0,8.973084450E0
3.401310691E0,-7.908278704E-1,1.107278705E0,8.977272034E0
3.403543540E0,-7.710871100E-1,1.130608678E0,8.982057571E0
3.405770591E0,-7.806583643E-1,1.145563841E0,8.967700958E0
3.408018577E0,-7.704889178E-1,1.178465128E0,8.986844063E0
3.410255454E0,-7.704889178E-1,1.192822099E0,8.996415138E0
3.412495994E0,-7.657032609E-1,1.173679471E0,8.982057571E0
3.414728111E0,-7.746763229E-1,1.211964726E0,8.972486496E0
3.416964439E0,-7.698906660E-1,1.211964726E0,9.001200676E0
3.419200523E0,-7.794619799E-1,1.211964726E0,8.986844063E0
3.421437644E0,-7.938188910E-1,1.231705427E0,9.005986214E0
3.423673972E0,-8.033902049E-1,1.231705427E0,8.986844063E0
3.425910300E0,-8.123632669E-1,1.236491084E0,8.972486496E0
3.428146812E0,-8.123632669E-1,1.250848055E0,8.986245155E0
3.430384116E0,-8.165507317E-1,1.279561877E0,8.967103004E0
3.432619529E0,-8.075776696E-1,1.260419369E0,8.967700958E0
3.434856040E0,-8.213363886E-1,1.280160069E0,8.962317467E0
3.437091941E0,-8.267202377E-1,1.279561877E0,9.000602722E0
3.439327415E0,-8.165507317E-1,1.293918848E0,8.991030693E0
3.441558921E0,-8.123632669E-1,1.293918848E0,9.043673515E0
3.443801658E0,-7.836494446E-1,1.288534999E0,9.067601204E0
3.446038169E0,-7.746763229E-1,1.297508121E0,9.105886459E0
3.448277000E0,-7.555337548E-1,1.320838094E0,9.153742790E0
3.450510642E0,-7.369893789E-1,1.310668588E0,9.206384659E0
3.452747459E0,-7.184450030E-1,1.277169108E0,9.259027481E0
3.454983482E0,-6.855437160E-1,1.275972724E0,9.302098274E0
3.457220115E0,-6.711867452E-1,1.280160069E0,9.373882294E0
3.459456382E0,-6.526423693E-1,1.261017561E0,9.416953087E0
3.461692954E0,-6.394818425E-1,1.250848055E0,9.498309135E0
3.463929587E0,-6.017948985E-1,1.225723386E0,9.565308571E0
3.466166831E0,-5.832505226E-1,1.210768223E0,9.627521515E0
3.468399925E0,-5.545366406E-1,1.224527001E0,9.656235695E0
3.470630759E0,-5.270192027E-1,1.200000525E0,9.742377281E0
3.472875816E0,-4.839483798E-1,1.208973646E0,9.776474953E0
3.475111533E0,-4.516452849E-1,1.174277663E0,9.843474388E0
3.477347129E0,-4.420739710E-1,1.169492126E0,9.876974106E0
3.479569358E0,-3.996013701E-1,1.158724308E0,9.924830437E0
3.481806052E0,-3.810569942E-1,1.125224829E0,9.930213928E0
3.484046409E0,-3.625126183E-1,1.100698471E0,9.968499184E0
3.486296286E0,-3.290131092E-1,1.119242787E0,9.978070259E0
3.488533041E0,-3.008974493E-1,1.094716311E0,1.001216793E1
3.490768576E0,-3.014956415E-1,1.070788145E0,1.003609657E1
3.493002586E0,-2.961117923E-1,1.075573802E0,1.003609657E1
3.495239097E0,-2.626122832E-1,1.074975610E0,1.004566765E1
3.497475730E0,-2.440679073E-1,1.074377418E0,1.005523872E1
3.499709067E0,-2.440679073E-1,1.074377418E0,1.006959629E1
3.501937339E0,-2.584248483E-1,1.064806104E0,1.009830952E1
3.504184653E0,-2.584248483E-1,1.079162955E0,1.011266708E1
3.506418296E0,-2.590230405E-1,1.064806104E0,1.012223816E1
3.508645347E0,-2.542374134E-1,1.079162955E0,1.014616585E1
3.510881980E0,-2.679961324E-1,1.088734269E0,1.013121128E1
3.513130454E0,-2.823530734E-1,1.084546804E0,1.011685371E1
3.515369773E0,-2.967100143E-1,1.079761267E0,1.011206818E1
3.517605674E0,-3.014956415E-1,1.084546804E0,1.010249710E1
3.519834739E0,-3.158525825E-1,1.099501967E0,1.009292603E1
3.522064048E0,-3.248256743E-1,1.099501967E0,1.006899738E1
3.524312339E0,-3.439682424E-1,1.114457130E0,1.007856941E1
3.526549155E0,-3.529413342E-1,1.133599758E0,1.006361389E1
3.528788230E0,-3.672982752E-1,1.133599758E0,1.004447079E1
3.531021629E0,-3.625126183E-1,1.124626637E0,1.000678444E1
3.533258201E0,-3.906283081E-1,1.158126116E0,9.996614456E0
3.535491782E0,-3.858426511E-1,1.153938770E0,9.967901230E0
3.537717124E0,-3.948157430E-1,1.163509965E0,9.920642853E0
3.539955405E0,-4.091726840E-1,1.168893814E0,9.910472870E0
3.542204001E0,-4.372883439E-1,1.192822099E0,9.891330719E0
3.544443991E0,-4.516452849E-1,1.179063320E0,9.857831001E0
3.546679588E0,-4.612165689E-1,1.179063320E0,9.838688850E0
3.548912986E0,-4.941178858E-1,1.189232826E0,9.819545746E0
3.551149192E0,-5.036891699E-1,1.189831018E0,9.771689415E0
3.553385886E0,-5.126622319E-1,1.195214868E0,9.728618622E0
3.555623374E0,-5.461617708E-1,1.195813060E0,9.713663101E0
3.557855552E0,-5.503492355E-1,1.200598717E0,9.699306488E0
3.560080405E0,-5.748756528E-1,1.172483087E0,9.675378799E0
3.562313864E0,-5.886343718E-1,1.201196909E0,9.665806770E0
3.564547323E0,-5.838487148E-1,1.186840057E0,9.670592308E0
3.566790854E0,-5.886343718E-1,1.186840057E0,9.632308006E0
3.569028526E0,-5.976074338E-1,1.216152072E0,9.598808289E0
3.571274131E0,-5.976074338E-1,1.192223907E0,9.594022751E0
3.573500633E0,-5.976074338E-1,1.216152072E0,9.589237213E0
3.575735679E0,-6.065805554E-1,1.225723386E0,9.560523033E0
3.577989402E0,-5.868397355E-1,1.249651670E0,9.527621269E0
3.580225791E0,-6.011967063E-1,1.240678549E0,9.503693581E0
3.582463767E0,-5.814558864E-1,1.273579836E0,9.503693581E0
3.584694663E0,-5.766702294E-1,1.287936807E0,9.503693581E0
3.586931907E0,-5.760720372E-1,1.331007600E0,9.498908043E0
3.589168540E0,-5.994020700E-1,1.326820135E0,9.460622787E0
3.591405845E0,-5.904290080E-1,1.307677627E0,9.465408325E0
3.593641013E0,-5.994020700E-1,1.350748420E0,9.465408325E0
3.595877769E0,-5.946164131E-1,1.355534077E0,9.470193863E0
3.598113670E0,-6.035895348E-1,1.369890928E0,9.460023880E0
3.600348350E0,-6.376872063E-1,1.369890928E0,9.503094673E0
3.602574180E0,-6.000002623E-1,1.369292736E0,9.560523033E0
3.604811179E0,-6.089733839E-1,1.412363529E0,9.602995872E0
3.607059897E0,-6.568298340E-1,1.446461320E0,9.617352486E0
3.609299643E0,-6.945167780E-1,1.470987678E0,9.611968994E0
3.611535667E0,-7.190431952E-1,1.485344648E0,9.692726135E0
3.613769431E0,-7.477570772E-1,1.514058471E0,9.763913155E0
3.616006187E0,-7.818548083E-1,1.533201098E0,9.839884758E0
3.618241843E0,-8.153542876E-1,1.533799291E0,9.896714211E0
3.620478355E0,-8.111668825E-1,1.523629785E0,9.925428391E0
3.622714500E0,-8.015955687E-1,1.542772412E0,9.934999466E0
3.624951560E0,-8.159525394E-1,1.547558069E0,9.958928108E0
3.627188560E0,-8.159525394E-1,1.533201098E0,9.954142570E0
3.629423972E0,-8.159525394E-1,1.533201098E0,9.963713646E0
3.631660423E0,-8.165507317E-1,1.509272933E0,9.944570541E0
3.633896324E0,-8.015955687E-1,1.518844128E0,9.930213928E0
3.636133079E0,-7.776673436E-1,1.504487276E0,9.887741089E0
3.638369163E0,-7.818548083E-1,1.523629785E0,9.859027863E0
3.640605796E0,-7.531409264E-1,1.503889084E0,9.850054741E0
3.642842429E0,-7.387840152E-1,1.499103427E0,9.811769485E0
3.645079978E0,-7.196413875E-1,1.503889084E0,9.792626381E0
3.647315086E0,-6.903293133E-1,1.532004714E0,9.769296646E0
3.649551658E0,-6.855437160E-1,1.513460279E0,9.754940033E0
3.651787681E0,-6.807580590E-1,1.494317770E0,9.721440315E0
3.654024558E0,-6.610172391E-1,1.488933921E0,9.688538551E0
3.656260886E0,-6.418746710E-1,1.488933921E0,9.641280174E0
3.658497459E0,-6.418746710E-1,1.479960799E0,9.607781410E0
3.660734031E0,-6.173482537E-1,1.508076429E0,9.579067230E0
3.662971275E0,-5.880361795E-1,1.493719578E0,9.522237778E0
3.665206382E0,-5.778666735E-1,1.517647743E0,9.498309135E0
3.667439047E0,-5.533402562E-1,1.560120344E0,9.484550476E0
3.669660361E0,-5.048855543E-1,1.583450437E0,9.484550476E0
3.671903709E0,-4.468596280E-1,1.611566067E0,9.470791817E0
3.674152183E0,-3.798605800E-1,1.624726534E0,9.466604233E0
3.676392417E0,-3.212364316E-1,1.676770449E0,9.424132347E0
3.678628196E0,-2.733799815E-1,1.694716692E0,9.458230019E0
3.680862693E0,-2.249253243E-1,1.727617979E0,9.453444481E0
3.683098045E0,-1.710868180E-1,1.774876237E0,9.430113792E0
3.685334617E0,-1.657029688E-1,1.808375716E0,9.387042999E0
3.687568320E0,-1.316052526E-1,1.803590059E0,9.306285858E0
3.689795005E0,-8.793623000E-2,1.802991867E0,9.273384094E0
3.692043601E0,-6.819544733E-2,1.836491346E0,9.230911255E0
3.694279868E0,-3.948157281E-2,1.816750646E0,9.183652878E0
3.696519553E0,2.333002165E-2,1.840080619E0,9.145966530E0
3.698753989E0,9.092725813E-2,1.829911113E0,9.069993973E0
3.700989036E0,1.447657645E-1,1.853241086E0,9.003593445E0
3.703225486E0,2.267199457E-1,1.857428551E0,8.913862228E0
3.705459494E0,2.757728100E-1,1.880758643E0,8.837890625E0
3.707686606E0,3.439682424E-1,1.923231244E0,8.772088051E0
3.709922996E0,4.217349887E-1,1.951346874E0,8.696115494E0
3.712171226E0,4.133601189E-1,1.989632010E0,8.629117012E0
3.714410056E0,4.474578202E-1,2.051845312E0,8.605786324E0
3.716648093E0,4.426721931E-1,2.047059774E0,8.596215248E0
3.718880454E0,4.773681164E-1,2.079961061E0,8.572885513E0
3.721116843E0,4.821537733E-1,2.084746838E0,8.563314438E0
3.723350303E0,4.773681164E-1,2.089532375E0,8.577073097E0
3.725575522E0,4.821537733E-1,2.118246317E0,8.577073097E0
3.727814292E0,4.821537733E-1,2.151147604E0,8.644071579E0
3.730062339E0,4.588237405E-1,2.218146563E0,8.705686569E0
3.732302024E0,4.396811724E-1,2.270788670E0,8.839086533E0
3.734540549E0,4.151547253E-1,2.337189436E0,8.962317467E0
3.736776267E0,3.726821244E-1,2.390429735E0,9.023932457E0
3.739008201E0,3.583251834E-1,2.428714991E0,9.081359863E0
3.741244468E0,3.337987661E-1,2.437688112E0,9.171689034E0
3.743479941E0,2.859423161E-1,2.481357098E0,9.223134995E0
3.745717429E0,2.333002090E-1,2.520240545E0,9.308678627E0
3.747953880E0,1.902294010E-1,2.558525562E0,9.394221306E0
3.750190330E0,1.471585929E-1,2.620738983E0,9.493523598E0
3.752427818E0,1.806581169E-1,2.696112871E0,9.613164902E0
3.754662925E0,1.710868180E-1,2.763111830E0,9.736993790E0
3.756899802E0,1.567298770E-1,2.805584431E0,9.817750931E0
3.759136558E0,1.429711580E-1,2.863012314E0,9.860223770E0
3.761372520E0,1.531406492E-1,2.896511793E0,9.855438232E0
3.763609031E0,1.148554832E-1,2.897109985E0,9.845867157E0
3.765845115E0,8.554340899E-2,2.859423161E0,9.831509590E0
3.768081809E0,8.015955985E-2,2.830709219E0,9.817152977E0
3.770318626E0,9.930214286E-2,2.782852650E0,9.778867722E0
3.772551291E0,1.034895778E-1,2.725425005E0,9.741181374E0
3.774778892E0,9.810572863E-2,2.663809776E0,9.736394882E0
3.777027061E0,1.256231815E-1,2.586641312E0,9.708279610E0
3.779263816E0,1.208375469E-1,2.553141832E0,9.689137459E0
3.781503073E0,1.292124242E-1,2.505285263E0,9.708279610E0
3.783736411E0,1.477568001E-1,2.471187592E0,9.765707016E0
3.785973044E0,1.615155339E-1,2.465803623E0,9.832706451E0
3.788210532E0,1.363908947E-1,2.461018085E0,9.913464546E0
3.790445701E0,1.363908947E-1,2.475374937E0,9.990034103E0
3.792682273E0,1.405783296E-1,2.489133835E0,1.007079220E1
3.794918235E0,1.549352705E-1,2.517249346E0,1.013779163E1
3.797154868E0,1.262213886E-1,2.560320139E0,1.021854877E1
3.799391196E0,1.746760458E-1,2.616551638E0,1.024247742E1
3.801624900E0,1.800599098E-1,2.669193745E0,1.023769188E1
3.803852927E0,1.956132501E-1,2.731407166E0,1.024247742E1
3.806101707E0,1.579262912E-1,2.775076151E0,1.025145054E1
3.808336997E0,1.920240223E-1,2.846262455E0,1.027597713E1
3.810576193E0,2.327020019E-1,2.955734253E0,1.021376324E1
3.812809470E0,2.961117923E-1,3.017349243E0,1.013838959E1
3.815046470E0,3.266202807E-1,3.089133978E0,1.007139015E1
3.817282615E0,3.565305769E-1,3.174677372E0,1.003848934E1
3.819519187E0,3.672982752E-1,3.232105255E0,9.985847473E0
3.821755698E0,3.876372576E-1,3.275176048E0,9.957133293E0
3.823993064E0,3.792623878E-1,3.351746321E0,9.933204651E0
3.826228416E0,3.320041299E-1,3.381058455E0,9.918250084E0
3.828465232E0,2.458625287E-1,3.378067255E0,9.884152412E0
3.830701988E0,1.692921966E-1,3.364906788E0,9.840482712E0
3.832934592E0,1.022931710E-1,3.351746321E0,9.806983948E0
3.835161948E0,5.503492057E-2,3.333800077E0,9.744172096E0
3.837408714E0,-2.392822644E-3,3.315854073E0,9.691530228E0
3.839638022E0,-9.332008660E-2,3.326621771E0,9.680762291E0
3.841872703E0,-2.129612118E-1,3.342773199E0,9.703494072E0
3.844108665E0,-3.804588020E-1,3.378665686E0,9.763913155E0
3.846357322E0,-5.718846321E-1,3.438486099E0,9.833903313E0
3.848595053E0,-7.680960894E-1,3.517449379E0,9.917651176E0
3.850831442E0,-1.016949654E0,3.597010612E0,1.001515961E1
3.853062339E0,-1.192223907E0,3.733401537E0,1.006600666E1
3.855289695E0,-1.368096352E0,3.836292982E0,1.008335495E1
3.857535483E0,-1.505683661E0,3.948755503E0,1.007737255E1
3.859760581E0,-1.695913076E0,4.061218262E0,1.012283611E1
3.862002159E0,-1.826920033E0,4.207778454E0,9.949954987E0
3.864247398E0,-1.972284079E0,4.325624943E0,9.781260490E0
3.866485923E0,-2.018345833E0,4.450650215E0,9.756733894E0
3.868717796E0,-1.944168448E0,4.593023300E0,9.723833084E0
3.870944419E0,-1.860419631E0,4.701896667E0,9.658030510E0
3.873192954E0,-1.640279889E0,4.746163845E0,9.759725571E0
3.875430197E0,-1.701895118E0,4.922634602E0,9.987641335E0
3.877667197E0,-1.840080619E0,5.048855782E0,1.013898754E1
3.879890525E0,-1.917847395E0,4.959125042E0,1.010967541E1
3.882138755E0,-1.923829436E0,4.858626366E0,1.010488987E1
3.884374595E0,-1.920240164E0,4.744369030E0,1.006720352E1
3.886614584E0,-1.863410592E0,4.710271358E0,1.001994514E1
3.888847739E0,-1.787438512E0,4.580460548E0,9.906285286E0
3.891084373E0,-1.981855392E0,4.354339123E0,9.824331284E0
3.893320884E0,-2.105085611E0,4.399204254E0,9.789635658E0
3.895558250E0,-2.443071842E0,4.141975880E0,9.591629982E0
3.897790671E0,-2.962912560E0,3.958925009E0,9.562915802E0
3.900018699E0,-3.183052301E0,4.622334957E0,9.588638306E0
3.902267234E0,-2.908475876E0,4.972883701E0,9.375677109E0
3.904503013E0,-2.410170555E0,5.134399414E0,9.074779510E0
3.906738914E0,-2.009372711E0,5.201398373E0,8.811569214E0
3.908962974E0,-1.759322882E0,5.188237667E0,8.680562019E0
3.911212241E0,-2.053041935E0,5.286941528E0,9.064012527E0
3.913449607E0,-1.971087694E0,5.304887772E0,9.007183075E0
3.915688011E0,-1.759921074E0,5.225924492E0,8.833105087E0
3.917921287E0,-1.592423439E0,5.161916733E0,8.710473061E0
3.920157554E0,-1.539183140E0,5.056632519E0,8.487341881E0
3.922394126E0,-1.530210137E0,4.928616524E0,8.325227737E0
3.924630515E0,-1.500898004E0,4.843072891E0,8.072785378E0
3.926866966E0,-1.466800332E0,4.753342152E0,7.811369419E0
3.929103416E0,-1.347159147E0,4.651647091E0,7.674380302E0
3.931340964E0,-1.203589797E0,4.578067780E0,7.585247993E0
3.933574912E0,-1.070788145E0,4.490131855E0,7.548159122E0
3.935807334E0,-9.517452121E-1,4.411766529E0,7.496713161E0
3.938048911E0,-8.614161611E-1,4.343571186E0,7.473981380E0
3.940285484E0,-7.663014531E-1,4.275375843E0,7.465606689E0
3.942523216E0,-6.765705943E-1,4.207180500E0,7.470990658E0
3.944758323E0,-5.922235847E-1,4.114458561E0,7.524828911E0
3.946994773E0,-5.593222976E-1,4.070789337E0,7.596613884E0
3.949232261E0,-4.743770957E-1,4.025924206E0,7.654639721E0
3.951467429E0,-4.175475538E-1,4.024727821E0,7.745566845E0
3.953704246E0,-4.091726840E-1,3.976871252E0,7.802994728E0
3.955939964E0,-4.534398913E-1,3.943969965E0,7.840681553E0
3.958176719E0,-6.873382926E-1,4.061218262E0,7.953144073E0
3.960413352E0,-7.866404653E-1,4.163511276E0,7.985447407E0
3.962649497E0,-7.902296782E-1,4.296911240E0,8.061419487E0
3.964886130E0,-7.603194118E-1,4.401597023E0,8.109275818E0
3.967123313E0,-6.598208547E-1,4.456632137E0,8.224131584E0
3.969358787E0,-6.496513486E-1,4.542175770E0,8.315058708E0
3.971592673E0,-6.209374666E-1,4.641477585E0,8.496315002E0
3.973817649E0,-6.065805554E-1,4.792823792E0,8.806185722E0
3.976053122E0,-5.306084156E-1,4.938187599E0,9.154341698E0
3.978289939E0,-5.114658475E-1,5.084748268E0,9.436096191E0
3.980532126E0,-4.402793646E-1,5.173282623E0,9.655637741E0
3.982780784E0,-3.074777126E-1,5.227120876E0,9.966704369E0
3.985017905E0,-1.812563092E-1,5.204389095E0,1.029691410E1
3.987253012E0,-8.853443712E-2,5.182255745E0,1.064626598E1
3.989486594E0,6.580262445E-3,5.039882660E0,1.110030460E1
3.991722434E0,4.307080805E-2,4.878965378E0,1.164407349E1
3.993959312E0,-1.435693540E-2,4.749154568E0,1.200180054E1
3.996195640E0,5.982056609E-4,4.651647091E0,1.232124233E1
3.998432273E0,-2.991028363E-3,4.530809879E0,1.258864021E1
4.000665793E0,3.230310604E-2,4.452444553E0,1.280818176E1
4.002893882E0,8.733802289E-2,4.402793884E0,1.304267788E1
4.005141257E0,1.465603858E-1,4.300500393E0,1.325324631E1
4.007378013E0,2.392822653E-1,4.207180500E0,1.342134190E1
4.009614036E0,3.469592929E-1,4.109074593E0,1.356550980E1
4.011839316E0,4.923232496E-1,3.982254982E0,1.372403431E1
4.014087241E0,7.094719410E-1,3.810570002E0,1.387418365E1
4.016323630E0,9.439685345E-1,3.571886063E0,1.402493191E1
4.018563072E0,1.170688510E0,3.414557934E0,1.419841099E1
4.020797446E0,1.483550072E0,3.270390272E0,1.437847137E1
4.023032859E0,1.838286042E0,3.058625460E0,1.456331635E1
4.025269370E0,2.100898266E0,2.733201742E0,1.467577934E1
4.027505210E0,2.224726915E0,2.382653236E0,1.468714523E1
4.029742027E0,2.205584288E0,1.971685886E0,1.460638809E1
4.031978355E0,2.139183521E0,1.671984792E0,1.452024555E1
4.034214988E0,2.114058733E0,1.529013634E0,1.443948841E1
4.036451621E0,2.070389748E0,1.453639746E0,1.434856129E1
4.038684775E0,2.077568293E0,1.530808330E0,1.422951794E1
4.040906760E0,2.057229280E0,1.728216171E0,1.408116341E1
4.043160544E0,1.896311998E0,2.089532375E0,1.394537067E1
4.045397727E0,1.844268084E0,2.383251429E0,1.376291752E1
4.047634727E0,1.858624935E0,2.613560438E0,1.357209015E1
4.049857810E0,1.821536183E0,2.911466837E0,1.336630726E1
4.052105796E0,1.683350682E0,3.215953588E0,1.319761372E1
4.054342978E0,1.546361685E0,3.562912941E0,1.301934814E1
4.056583396E0,1.384247899E0,3.853042603E0,1.281715488E1
4.058815330E0,1.223330617E0,4.172484398E0,1.256710434E1
4.061051841E0,1.089930773E0,4.429114819E0,1.232722378E1
4.063287864E0,9.176474810E-1,4.638486862E0,1.209153080E1
4.065524802E0,7.495517135E-1,4.838287354E0,1.187976646E1
4.067758139E0,5.844469070E-1,4.932804108E0,1.169671535E1
4.069985679E0,3.858426511E-1,5.017749310E0,1.151366425E1
4.072234031E0,1.728814393E-1,5.117649555E0,1.136351490E1
4.074471519E0,-2.572284266E-2,5.193023205E0,1.121396351E1
4.076709555E0,-2.530409992E-1,5.316253662E0,1.109731293E1
4.078943015E0,-4.666004181E-1,5.397011280E0,1.098066330E1
4.081179222E0,-7.178468108E-1,5.516054630E0,1.087298584E1
4.083415916E0,-9.505487680E-1,5.624927998E0,1.076590729E1
4.085652549E0,-1.177866936E0,5.700900078E0,1.061097240E1
4.087888999E0,-1.405783296E0,5.796014786E0,1.051825047E1
4.090125449E0,-1.589432478E0,5.961717606E0,1.043988514E1
4.092362815E0,-1.711466432E0,6.078966141E0,1.032443142E1
4.094597678E0,-1.800000787E0,6.200401783E0,1.021854877E1
4.096834312E0,-1.860419631E0,6.306882381E0,1.015573788E1
4.099070396E0,-1.911865234E0,6.393621922E0,1.016949654E1
4.101307578E0,-1.954337835E0,6.466004848E0,1.018325520E1
4.103541892E0,-1.987239242E0,6.518647194E0,1.023529911E1
4.105772361E0,-1.977667928E0,6.527620316E0,1.027836990E1
4.108016685E0,-1.953739643E0,6.546762943E0,1.027836990E1
4.110253989E0,-1.944168448E0,6.522834301E0,1.026879883E1
4.112491355E0,-1.920838356E0,6.498308182E0,1.026461124E1
4.114726218E0,-1.881955028E0,6.507281303E0,1.023649502E1
4.116962974E0,-1.872981906E0,6.464210510E0,1.019820976E1
4.119198630E0,-1.825723648E0,6.406184196E0,1.017966557E1
4.121435142E0,-1.774278045E0,6.295516491E0,1.015633583E1
4.123671287E0,-1.698305845E0,6.184848309E0,1.007139015E1
4.125908347E0,-1.604387641E0,6.045466423E0,1.001037312E1
4.128145286E0,-1.514656782E0,5.915057659E0,9.978070259E0
4.130380515E0,-1.401595831E0,5.769693375E0,9.951150894E0
4.132614219E0,-1.229910851E0,5.714658737E0,9.919445992E0
4.134838950E0,-1.024128079E0,5.687739372E0,9.935597420E0
4.137081199E0,-8.333004713E-1,5.665606022E0,9.980463028E0
4.139326255E0,-6.861419082E-1,5.610570908E0,1.004387283E1
4.141565878E0,-6.011967063E-1,5.532206059E0,1.007318497E1
4.143801657E0,-5.694918036E-1,5.416752338E0,1.011206818E1
4.146036765E0,-5.760720372E-1,5.292923450E0,1.010249710E1
4.148272056E0,-6.675975323E-1,5.227120876E0,1.006361389E1
4.150508445E0,-9.403793216E-1,5.533402443E0,9.946365356E0
4.152744712E0,-1.200598717E0,5.375475883E0,9.820143700E0
4.154981284E0,-1.325623751E0,5.177470207E0,9.556933403E0
4.157217673E0,-1.357328653E0,5.207978249E0,9.332606316E0
4.159454185E0,-1.469193101E0,4.942973614E0,9.126823425E0
4.161690818E0,-1.498505235E0,4.814957142E0,8.926424980E0
4.163928062E0,-1.415952802E0,4.800002098E0,8.793622971E0
4.166163169E0,-1.362712502E0,4.799404144E0,8.708678246E0
4.168399741E0,-1.252642632E0,4.769493580E0,8.628518105E0
4.170637167E0,-1.102493048E0,4.829912663E0,8.586644173E0
4.172878074E0,-9.828519225E-1,4.813760757E0,8.521439552E0
4.175108970E0,-9.296116233E-1,4.799404144E0,8.450253487E0
4.177345298E0,-9.152546525E-1,4.780261517E0,8.407182693E0
4.179580588E0,-9.343972206E-1,4.737788677E0,8.349754333E0
4.181819419E0,-1.006780148E0,4.710271358E0,8.325826645E0
4.184054527E0,-1.115653515E0,4.764708042E0,8.286344528E0
4.186291160E0,-1.331605792E0,5.106881618E0,8.355138779E0
4.188525229E0,-1.573879123E0,4.919044971E0,8.391629219E0
4.190749411E0,-1.604387641E0,4.804787636E0,8.372486115E0
4.192985801E0,-1.537388563E0,4.808377266E0,8.420941353E0
4.195222068E0,-1.423131227E0,4.844269276E0,8.522037506E0
4.197461814E0,-1.342971683E0,4.842474937E0,8.675178528E0
4.199700034E0,-1.248455167E0,4.820939541E0,8.838488579E0
4.201938010E0,-1.245464206E0,4.749154568E0,8.933603287E0
4.204170493E0,-1.576870084E0,5.064409256E0,8.992227554E0
4.206406638E0,-1.677368641E0,4.755136967E0,9.039485931E0
4.208641989E0,-1.485344648E0,4.408177376E0,8.970093727E0
4.210880027E0,-1.372882009E0,4.262813568E0,8.971290588E0
4.213116233E0,-1.537388563E0,4.480560303E0,8.988637924E0
4.215352805E0,-1.322632670E0,4.123431683E0,9.034101486E0
4.217593589E0,-9.852447510E-1,3.917050600E0,9.023334503E0
4.219839194E0,-7.627122402E-1,3.803391695E0,9.135198593E0
4.222061973E0,-6.011967063E-1,3.766302824E0,9.303893089E0
4.224298301E0,-4.498506486E-1,3.748954773E0,9.495916367E0
4.226533103E0,-2.877369225E-1,3.783650875E0,9.683155060E0
4.228777121E0,-1.256231815E-1,3.928416491E0,9.975079536E0
4.231011130E0,1.357926875E-1,3.942175388E0,1.029751205E1
4.233244468E0,4.677968323E-1,3.835096598E0,1.051525879E1
4.235480552E0,7.884350419E-1,3.853640795E0,1.063729286E1
4.237715964E0,9.475577474E-1,3.904488325E0,1.060020447E1
4.239952781E0,1.006181955E0,3.961317778E0,1.053380394E1
4.242188743E0,1.063609719E0,3.969692707E0,1.054875851E1
4.244426170E0,1.116251707E0,4.011567116E0,1.064447117E1
4.246662803E0,1.130608678E0,4.096512318E0,1.080658531E1
4.248899131E0,1.139581800E0,4.162314892E0,1.098305607E1
4.251138328E0,1.171884894E0,4.208974838E0,1.119781208E1
4.253387473E0,1.262812138E0,4.273581028E0,1.135633659E1
4.255622641E0,1.396810174E0,4.319045067E0,1.147657585E1
4.257861045E0,1.536192179E0,4.378267288E0,1.154417324E1
4.260099449E0,1.570888042E0,4.506881237E0,1.157767200E1
4.262329246E0,1.558325768E0,4.645665169E0,1.162014484E1
4.264565574E0,1.506880045E0,4.722833633E0,1.162911797E1
4.266800376E0,1.427318692E0,4.824528694E0,1.158066368E1
4.269038657E0,1.308874011E0,4.903491974E0,1.155553913E1
4.271275718E0,1.190429211E0,4.977071285E0,1.148315620E1
4.273511069E0,1.053440213E0,5.027320385E0,1.138146114E1
4.275747642E0,9.164510965E-1,5.063810825E0,1.119900799E1
4.277983787E0,7.896314859E-1,5.110470772E0,1.092622662E1
4.280220664E0,6.783652306E-1,5.204389095E0,1.061934662E1
4.282457175E0,5.635097623E-1,5.379663467E0,1.035613632E1
4.284693443E0,4.677968323E-1,5.616552830E0,1.012582684E1
4.286929771E0,4.157529473E-1,5.909673691E0,9.976874352E0
4.289167075E0,3.445664644E-1,6.288337708E0,9.966106415E0
4.291402671E0,2.823530734E-1,6.633502483E0,1.001276588E1
4.293639060E0,2.099701911E-1,6.959524632E0,1.008754253E1
4.295875144E0,1.411765367E-1,7.237690449E0,1.016770172E1
4.298111900E0,7.657032460E-2,7.410571575E0,1.021914768E1
4.300348228E0,-2.213360928E-2,7.545766354E0,1.020837975E1
4.302584556E0,-5.503492057E-2,7.570292473E0,1.018445110E1
4.304818137E0,-1.794617027E-1,7.601399422E0,1.015454102E1
4.307046470E0,-3.080759048E-1,7.617550850E0,1.010070229E1
4.309293845E0,-3.750749528E-1,7.576274872E0,1.002413273E1
4.311530357E0,-4.031906128E-1,7.543373585E0,9.904491425E0
4.313769187E0,-4.115654826E-1,7.549355507E0,9.747162819E0
4.316003074E0,-4.582255483E-1,7.536793232E0,9.551549911E0
4.318239585E0,-5.461617708E-1,7.572685242E0,9.283554077E0
4.320475974E0,-6.400800347E-1,7.589435101E0,9.029914856E0
4.322712607E0,-7.770691514E-1,7.621140003E0,8.885746956E0
4.324949973E0,-9.110672474E-1,7.628318787E0,8.846264839E0
4.327184959E0,-1.010967612E0,7.644470215E0,8.806783676E0
4.329422019E0,-1.106082320E0,7.674380302E0,8.758329391E0
4.331658775E0,-1.147956610E0,7.709076405E0,8.672187805E0
4.333891684E0,-1.241276741E0,7.811369419E0,8.532805443E0
4.336118675E0,-1.305284739E0,7.942376614E0,8.402995110E0
4.338366783E0,-1.431506157E0,8.112266541E0,8.287541389E0
4.340603782E0,-1.542174220E0,8.310871124E0,8.128418922E0
4.342843954E0,-1.585843205E0,8.546564102E0,8.008777618E0
4.345076621E0,-1.576271892E0,8.804988861E0,7.889136314E0
4.347313071E0,-1.510469317E0,9.029315948E0,7.813164234E0
4.349548972E0,-1.381855130E0,9.218947411E0,7.685148239E0
4.351785728E0,-1.229910851E0,9.413364410E0,7.595417500E0
4.354022056E0,-1.097109199E0,9.607781410E0,7.510472298E0
4.356258628E0,-9.930213690E-1,9.831509590E0,7.454240799E0
4.358495017E0,-9.026923180E-1,1.004088211E1,7.378268719E0
4.360732566E0,-8.183453679E-1,1.021196842E1,7.297510624E0
4.362967918E0,-7.489534616E-1,1.030708313E1,7.202994347E0
4.365204490E0,-7.423732281E-1,1.037946606E1,7.097710133E0
4.367440269E0,-7.453642488E-1,1.041835022E1,6.954739094E0
4.369674277E0,-7.734799385E-1,1.040518951E1,6.777669907E0
4.371898521E0,-8.338986635E-1,1.040219784E1,6.582056999E0
4.374135398E0,-9.044869542E-1,1.037587738E1,6.361917019E0
4.376386619E0,-9.798609018E-1,1.037288570E1,6.165705681E0
4.378626730E0,-1.035493970E0,1.035135078E1,5.931807518E0
4.380862876E0,-1.076770186E0,1.034357452E1,5.697310925E0
4.383095542E0,-1.118644595E0,1.030708313E1,5.425725460E0
4.385331626E0,-1.173679471E0,1.027597713E1,5.120042324E0
4.387565574E0,-1.224527001E0,1.024487019E1,4.795216560E0
4.389793296E0,-1.269990563E0,1.020419216E1,4.423132420E0
4.392041099E0,-1.344168067E0,1.018325520E1,4.026522160E0
4.394277671E0,-1.394417405E0,1.011924744E1,3.649652719E0
4.396517844E0,-1.444068432E0,1.010249710E1,3.229114056E0
4.398747336E0,-1.576271892E0,1.001575756E1,2.794218540E0
4.400974998E0,-1.698904037E0,9.938589096E0,2.388036966E0
4.403224021E0,-1.826321840E0,9.851250648E0,2.033899307E0
4.405459800E0,-1.929811478E0,9.802198410E0,1.651645780E0
4.407696006E0,-2.028515339E0,9.762118340E0,1.336391449E0
4.409920554E0,-2.121835470E0,9.745966911E0,1.030110121E0
4.412169333E0,-2.187039852E0,9.724431038E0,7.579265833E-1
4.414406638E0,-2.252244234E0,9.721440315E0,5.042873621E-1
4.416644676E0,-2.318047047E0,9.666405678E0,2.225325108E-1
4.418878257E0,-2.340180635E0,9.601799011E0,-8.255238086E-2
4.421114341E0,-2.300698996E0,9.501898766E0,-4.301098585E-1
4.423351157E0,-2.231905222E0,9.407382011E0,-8.297112584E-1
4.425587302E0,-2.100898266E0,9.302098274E0,-1.186241865E0
4.427824058E0,-1.950748682E0,9.224929810E0,-1.575673699E0
4.430060447E0,-1.771286964E0,9.181260109E0,-1.931606054E0
4.432297996E0,-1.578664780E0,9.112466812E0,-2.201396942E0
4.434533042E0,-1.385444283E0,9.067601204E0,-2.471187592E0
4.436770651E0,-1.169492126E0,9.007781029E0,-2.598007202E0
4.439006309E0,-9.355936646E-1,8.909076691E0,-2.672184706E0
4.441229331E0,-6.921239495E-1,8.833703041E0,-2.674577475E0
4.443478599E0,-4.558327198E-1,8.681160927E0,-2.595614433E0
4.445714194E0,-2.524427772E-1,8.553144455E0,-2.478964329E0
4.447954978E0,-7.896314561E-2,8.377870560E0,-2.324627161E0
4.450188865E0,1.369891018E-1,8.177471161E0,-2.155334949E0
4.452424461E0,3.672982752E-1,7.967501163E0,-1.966900229E0
4.454661094E0,5.928218365E-1,7.762316704E0,-1.783251047E0
4.456897361E0,8.518448472E-1,7.537391186E0,-1.585245013E0
4.459133689E0,1.072582722E0,7.337590694E0,-1.425524116E0
4.461370200E0,1.293918848E0,7.146762848E0,-1.241874933E0
4.463606467E0,1.519442320E0,6.970292568E0,-1.058225870E0
4.465840965E0,1.730608940E0,6.784250259E0,-8.416753411E-1
4.468071616E0,1.951346874E0,6.574280262E0,-6.005984545E-1
4.470315818E0,2.181656122E0,6.421139717E0,-3.314059377E-1
4.472552573E0,2.421536446E0,6.281757832E0,-2.871387079E-2
4.474788413E0,2.632703066E0,6.157330990E0,3.026920557E-1
4.477010337E0,2.843869686E0,6.032904148E0,6.388836503E-1
4.479249595E0,3.035893679E0,5.918646812E0,9.936196208E-1
4.481497703E0,3.184846878E0,5.809175014E0,1.342971683E0
4.483737449E0,3.319443226E0,5.729015827E0,1.721037745E0
4.485974692E0,3.449253798E0,5.624927998E0,2.094317913E0
4.488206809E0,3.565305710E0,5.559125423E0,2.472383976E0
4.490443198E0,3.646661758E0,5.483751297E0,2.902493954E0
4.492679527E0,3.698705673E0,5.309075356E0,3.289532900E0
4.494916404E0,3.746562004E0,5.182255745E0,3.638286829E0
4.497152793E0,3.833899975E0,5.097908497E0,3.996612072E0
4.499389304E0,3.935595036E0,5.042275429E0,4.360321045E0
4.501625876E0,4.071985722E0,5.052444935E0,4.704887390E0
4.503860068E0,4.237689018E0,5.072783947E0,5.006382942E0
4.506086021E0,4.369892120E0,5.078765869E0,5.274977684E0
4.508334800E0,4.521836758E0,5.123033047E0,5.524429321E0
4.510570884E0,4.649254322E0,5.163113117E0,5.801996708E0
4.512810812E0,4.773681164E0,5.227120876E0,5.983851433E0
4.515044028E0,4.873581409E0,5.267798901E0,6.142375946E0
4.517280418E0,4.950151920E0,5.356931686E0,6.262016773E0
4.519517234E0,4.974678040E0,5.428118229E0,6.329015732E0
4.521754478E0,5.005186558E0,5.560919762E0,6.391229153E0
4.523989646E0,5.011766911E0,5.747560024E0,6.438487530E0
4.526226157E0,5.034498692E0,5.981458187E0,6.443273067E0
4.528462181E0,5.066802025E0,6.205785751E0,6.419344902E0
4.530698814E0,5.114060402E0,6.434898376E0,6.290132523E0
4.532932456E0,5.151747227E0,6.607779503E0,6.123233318E0
4.535160972E0,5.151148796E0,6.761518478E0,5.879763603E0
4.537408347E0,5.111069202E0,6.839883327E0,5.641079426E0
4.539641562E0,4.984249592E0,6.872186661E0,5.373083115E0
4.541867331E0,4.808975220E0,6.876374245E0,5.075775146E0
4.544117820E0,4.561318398E0,6.818946362E0,4.811367989E0
4.546354575E0,4.280161381E0,6.748358250E0,4.508078098E0
4.548594260E0,4.022335052E0,6.667002201E0,4.253242016E0
4.550826499E0,3.788436413E0,6.586244106E0,3.998406649E0
4.553059836E0,3.587439299E0,6.508477688E0,3.782454491E0
4.555287742E0,3.391826153E0,6.445665836E0,3.618546009E0
4.557534812E0,3.218944550E0,6.386443615E0,3.521636724E0
4.559760581E0,3.007778168E0,6.342176437E0,3.486342669E0
4.561999960E0,2.767299414E0,6.330810547E0,3.574877024E0
4.564245017E0,2.498106956E0,6.343971252E0,3.725026608E0
4.566483970E0,2.243869543E0,6.418746948E0,3.903890133E0
4.568722190E0,2.013560295E0,6.512066841E0,4.106681824E0
4.570959739E0,1.812563181E0,6.633502483E0,4.333401680E0
4.573190757E0,1.673779488E0,6.768098831E0,4.532006264E0
4.575428367E0,1.555334687E0,6.960721016E0,4.735395908E0
