,time,pitch,roll,yaw,acc_x,acc_y,acc_z,norm
0,0.1194745632247191,0.0100691442817052,-0.002770510151533009,-0.009639893911265098,0.027094011225348318,0.09427452396943822,9.779190513505617,9.779691287997135
1,0.3185007395505618,0.009865369275068049,-0.0029005157451446463,-0.009378282181008508,0.028364358155460668,0.09170694431393256,9.778256255629215,9.778737110931562
2,0.5175290544269664,0.009919378207538975,-0.0030493592564202103,-0.00939643368382089,0.02981618304168539,0.09187497968752806,9.777469892191009,9.777956374383237
3,0.7165518071685394,0.009846282929217106,-0.0027960745830462965,-0.009398129809062142,0.027349425039550564,0.09192875077651685,9.78124723539326,9.781728569401617
4,0.9155810233370785,0.009767743195727091,-0.0027359839030942235,-0.009319982166793523,0.026757940722853927,0.09115578807505618,9.780104626393259,9.780577443804013
5,1.1146078316067414,0.010042919545410494,-0.00300353367338773,-0.009548494052706094,0.02937256994198876,0.09338057585123598,9.779331625157305,9.779829713936735
6,1.3136331371460672,0.009757903748944136,-0.0028000770917747603,-0.009307368555924532,0.027383032035089887,0.0910146391292135,9.77871334422472,9.779185367366667
7,1.5126600940898876,0.009939748686042995,-0.002733911524687315,-0.009513742482289785,0.026737776348786515,0.09304450527595506,9.779667736483146,9.78015509294645
8,1.7116866712022472,0.009940010302659934,-0.0030483942353236168,-0.009414708204748008,0.029809461833382022,0.09206317858808988,9.778437764483146,9.778926510699463
9,1.9107127331460676,0.010003478940642794,-0.002932229013725319,-0.0095160334094857,0.028680264467820227,0.09307811224820225,9.780796908269664,9.781290495096785
10,2.109738777359551,0.010109770774623437,-0.0030437584559492685,-0.009598855517394643,0.02976913333669663,0.09388468196741571,9.780581838573033,9.781086792962776
11,2.308764683617978,0.00994403756202615,-0.0028201998901685294,-0.00947928506826391,0.027584674422516848,0.09270843444685392,9.77968116286517,9.78017055283015
12,2.5077915555617976,0.010139767312913786,-0.002818723300009963,-0.009684709356289853,0.02755778873039326,0.09468452992067415,9.776260011674157,9.77676742927643
13,2.706818101752809,0.009895479609654744,-0.0025165016664482403,-0.009535804210575696,0.02461381035713483,0.09327303325033705,9.781052396595506,9.78153717528544
14,2.905843954606742,0.009842981056440811,-0.0028552849496136395,-0.009295772958737774,0.027920745061134827,0.09090037510033708,9.778491491685394,9.778972269190966
15,3.104867516258427,0.010145096476223333,-0.003128114445138966,-0.009572833863592863,0.030582424022168535,0.0935956610132584,9.776797691067415,9.77730611862283
16,3.3038973568988768,0.009755596935056511,-0.0028045473094662383,-0.009304531028262224,0.02741663899244944,0.09096086736730336,9.775796225898876,9.776265916105665
17,3.50292193905618,0.009808715958205953,-0.0028801510772303524,-0.009333395170562085,0.02816271594574157,0.09126333155707865,9.777792469842696,9.778268469484527
18,3.701949297168539,0.009927975109707922,-0.0031253719525873988,-0.009364073356572949,0.030555538414269664,0.09154563020404496,9.775937316089887,9.776424397365851
19,3.9009707061348315,0.010008044607430112,-0.0032255255013496596,-0.009400381266223617,0.031543586078595504,0.09191530792,9.7777454182809,9.77824116820252
20,4.099995285303372,0.010055290074798447,-0.0029121747839163346,-0.009568471208886337,0.028485343628797746,0.09358893954314605,9.780857418370786,9.781357625484718
21,4.299023801089888,0.00981267314097184,-0.0026626596936475287,-0.009354108477413503,0.02605219249177528,0.0914985804560674,9.781643867539325,9.782121132798737
22,4.498056202685393,0.009755252975196712,-0.002847044853632268,-0.009296814414476922,0.027840088068202245,0.09090709635955056,9.778041153797753,9.77851209329055
23,4.69708318158427,0.009740510133827714,-0.0027913486560895728,-0.009278165325412016,0.02729565370757303,0.09073233939179774,9.778780487123596,9.779249372851405
24,4.89610871275281,0.009885704289563866,-0.002763342647049843,-0.009446219277843374,0.027026797147,0.09239252815505618,9.780346613258427,9.78082872191112
25,5.095135823382023,0.009951081267085516,-0.0029039567621334944,-0.009454766847022787,0.02841140799674157,0.09248662798438202,9.782020258123595,9.782508989479158
26,5.294161883382023,0.010053010153637186,-0.0025361482739073233,-0.009665950743668699,0.02484233842202247,0.09464420160483146,9.792088958674158,9.792588234857542
27,5.493188788157304,0.010439433899699433,-0.0031408362350396827,-0.009673843949067576,0.07102515861446067,0.9418042333477414,10.504565324775283,10.575288566803065
28,5.6922147534719105,0.19889891162846346,0.007331041377070205,-0.00881417128061589,-0.2465615526205281,2.440712705089888,9.05118105388764,9.396241676274133
29,5.891241410089888,0.3184895107788005,-0.0037801855624871004,0.0009950205520380413,0.13161196648941575,3.7640578853932585,9.034774073044943,9.801917427254743
30,6.090264010842697,0.5608600996152178,-0.009737463614720289,-0.5605323165089111,0.09397205950956292,5.035123921561798,8.039648870393258,9.50043177479284
31,6.289294872112359,0.6586989955679906,-0.016520493326254774,-0.6581342038291663,0.16115257190070786,5.96927920883146,7.720052392269663,9.7642226537066
32,6.488319871752809,0.7200712125825274,-0.011751276689338402,-0.7192173291661135,0.11321546243371909,6.44385120841573,7.35306332083146,9.782991127597706
33,6.6873412512022465,0.780806287461297,-0.007844023720112196,-0.7804617928939283,0.07601916901513482,6.837779725516854,6.9031790722359565,9.718703776020359
34,6.886374011359552,0.8287162969111113,-0.013981942720607536,-0.8282509115684386,0.13616908398173033,7.219024926101123,6.623662450314606,9.80125462455758
35,7.085400210505616,0.8913595892670763,-0.0077682457200775054,-0.8911875935279855,0.0773029581031236,7.569781807,6.116357149741572,9.734486884950053
36,7.284427487764045,0.9487718804185753,-0.014609038947599217,-0.9483781821821381,0.14305853199246069,7.930029301134831,5.6915235626853935,9.767020341789769
37,7.483445480674157,1.0185702315690313,-0.014464889944026754,-1.0182421440935432,0.14115637138548312,8.312195349303371,5.122878690797753,9.766162216931841
38,7.682472429449438,1.065921309585757,-0.012460431867842577,-1.0655405680886456,0.1224910098068427,8.519053501988765,4.709545467674157,9.736139074544639
39,7.881506855404495,1.1097361248004907,-0.014245266088753851,-1.109310762201733,0.139381919222618,8.744798928168539,4.345621323325842,9.768056402940939
40,8.08053284675281,1.16076881063657,-0.015108972895676297,-1.160203499889282,0.14737367788287642,8.934624972011235,3.884754274685393,9.745463966339301
41,8.279560344853932,1.1943913387339178,-0.01696204876917743,-1.193765116742628,0.16595166059280786,9.097699840404495,3.5969568692134835,9.786210669900665
42,8.478585577696629,1.2588977839201412,-0.014841633786657853,-1.2583852546690355,0.14451707766310112,9.264182540842697,2.987795307415731,9.736700618829493
43,8.677612718505618,1.3121556388039446,-0.015086028145533061,-1.311564273775954,0.14704432863601125,9.417309718191012,2.492689376426966,9.744156150501844
44,8.876639379853932,1.3437096325965765,-0.016684588438626243,-1.3429394127559404,0.16261111846623597,9.50144841697753,2.196483476730337,9.75520201833413
45,9.075664976247191,1.3856918552813562,-0.015511195414140453,-1.3849170512726148,0.15150734589797754,9.587536222471911,1.7963779924044943,9.758654123039909
46,9.274690467674157,1.4239118019631667,-0.01607677329733726,-1.422986009110049,0.15685086940438203,9.647854194213485,1.4277354399101123,9.755012230169665
47,9.47371893888764,1.4540283797027045,-0.016008349174884605,-1.4528558041085506,0.15624594161539324,9.690555358179775,1.1373233882617977,9.760300239720811
48,9.672745911584268,1.4888825394862772,-0.015146403920147938,-1.4872649213732219,0.14785761959958424,9.718307998685393,0.7983088198617977,9.753486595322624
49,9.871772365202249,1.4913110270070573,-0.01538195993058634,-1.4896783837377943,0.15028404872697754,9.733142134853932,0.7755366731337079,9.765888116720483
50,10.07079819686517,1.5162782098928569,-0.014861526536554258,-1.5140373756055665,0.14512200481707865,9.745939779820224,0.5320468052707865,9.762695931976793
51,10.269821632808988,1.5459963296537134,-0.015376562697212723,-1.540243300071379,0.15010929258101124,9.755403497168539,0.24215230782361796,9.760756495399395
52,10.468852109325843,1.5789101514235164,-0.01606162061499288,-1.5453174694835567,0.15677021234719102,9.756882153146067,-0.07909757536104495,9.760584308746068
53,10.667878058202248,1.5593326216255003,-0.016158598273252774,-1.5493343021674915,0.15775825903483146,9.761069629955056,0.11193167289370784,9.763532002720407
54,10.866905450898876,1.5536914030975084,-0.016341591413936284,-1.5466091430026538,0.1595663187247191,9.761869526932585,0.16703380816314609,9.764865763339687
55,11.065931764494383,1.55888180274317,-0.016299849876482482,-1.5500458872234695,0.15913614823146066,9.761278034539325,0.11633419750982023,9.763436331353715
56,11.264959139438202,1.5621342877043756,-0.016465004463981824,-1.550893736136224,0.16072240153146067,9.759980748191012,0.08456208273244831,9.761961264548011
57,11.463985447752808,1.5559650544188455,-0.016313347488827803,-1.5483869269511614,0.15925713419101123,9.760202600674157,0.1447993770566292,9.762760053764081
58,11.663012459101123,1.5650456786080693,-0.016342413489725854,-1.5529261849962783,0.15953943351123595,9.761096482786517,0.056150674901861784,9.762672690311703
59,11.862039348764041,1.5617706544206047,-0.016223069951498532,-1.5519229054647723,0.15836990766853934,9.760565543393257,0.08811770984322473,9.762338505177485
60,12.061065174382023,1.5632342037034426,-0.016079458301868015,-1.5523189298241717,0.15695841091123597,9.760047966179775,0.07383470980865058,9.761739799699006
61,12.26009237258427,1.561198514781207,-0.016480056267435147,-1.5509193330713886,0.16087027296404496,9.759927020898877,0.09369648185449438,9.761889791855936
62,12.45911876191011,1.5677852806623238,-0.016253040599163982,-1.552353039602664,0.1586522074011236,9.759933696651684,0.029406177323561798,9.761646595343674
63,12.658143366292135,1.5630418472057395,-0.016227103487240623,-1.552016567142101,0.15838335069550563,9.758979272258426,0.07569654112950337,9.760749757754162
64,12.857173204606742,1.5687132852221672,-0.016372123352165265,-1.5535173923063772,0.15984861870337078,9.762212196067415,0.02034571384311011,9.763685108423145
65,13.056199588089887,1.5633699333585847,-0.016377360713434937,-1.5523114118471317,0.15988222601348315,9.761190617966292,0.07251059142271798,9.762891805017041
66,13.255227536179776,1.5676556093622496,-0.016305942289673102,-1.5534030688800924,0.15916303361438203,9.759839593651684,0.030663081171650557,9.761334690202954
67,13.454252906067415,1.5690744833769188,-0.016404858872081367,-1.552064948771949,0.16017796726404496,9.762440777820224,0.016830415263616855,9.764188925029055
68,13.653280388089886,1.5677314076256985,-0.016395007656819303,-1.5533048398369822,0.1600704249992135,9.761681192382023,0.029943889987976403,9.763217740095296
69,13.852307240674156,1.570375756329111,-0.01633605797308814,-1.5537765143535698,0.15944533334044944,9.759301839179775,0.004113504113921348,9.760728276411198
70,14.051334198876406,1.5674031477302262,-0.016538856653419826,-1.5525078185911818,0.16144159319101126,9.760121902662922,0.03313656069432472,9.761779226977735
71,14.250361721348314,1.571323113715801,-0.016597969639617554,-1.5528612984886074,0.16201291308314605,9.759805990011236,-0.005135158992765168,9.761399224677007
72,14.449387924606741,1.5649103866489333,-0.016532339823943535,-1.552497477868826,0.1613676578955056,9.759295184910112,0.05746134998420112,9.76096725677096
73,14.64841508707865,1.5663253037170197,-0.016327072074007732,-1.5526940929289712,0.15938484065955055,9.760531907584271,0.04365557045181685,9.762173142746274
74,14.84744251752809,1.5645760521669192,-0.01653162225383612,-1.5528053019284753,0.16142815041460676,9.763569960359552,0.0607481208866517,9.765167214618716
75,15.04646888314607,1.5616051820525492,-0.01628628994012361,-1.5502129963044817,0.15900844184494384,9.761412406168539,0.08978462026011909,9.763721443087684
76,15.245496285730338,1.5818569260793138,-0.016617771243006136,-1.5483281242363338,0.16221455459438203,9.75904644739326,-0.10794587625064048,9.7616493287461
77,15.444523149101123,1.5672585272527428,-0.015953311330033713,-1.54710104301049,0.15576872162943822,9.761587175089888,0.03464215589347977,9.764696197618338
78,15.643549303370785,1.5769614672862278,-0.02504092883332194,-1.541280357307493,0.24487447856870787,9.772818629696628,-0.06033811499683258,9.77795509541145
79,15.842574726292135,1.5969514121543902,-0.05523193832714552,-1.509350611921175,0.5395075702202248,9.758643214539326,-0.255642181452809,9.778527941854103
80,16.041603909550563,1.6093614959791378,-0.172190622950982,-1.3933164797219155,1.6605180903966292,9.543282466067415,-0.37422805037528084,9.706594312038568
81,16.240631605617978,1.5964419280455537,-0.3010909771643578,-1.2681597350586546,2.8997313681685397,9.330872449955057,-0.25048013689348314,9.777771686571217
82,16.439658256292137,1.601933974837821,-0.33984980536501497,-1.229015093450068,3.257565897539326,9.204913150067416,-0.30446651580782025,9.772344332664
83,16.63868485966292,1.6042298584461734,-0.3240566734314185,-1.2447820125574398,3.0810280060112363,9.161976717786517,-0.3230646631,9.676849329462737
84,16.837712294382023,1.583946923354008,-0.5070173679966468,-1.06345721405862,4.79887973594382,8.619619273078651,-0.12930652279117977,9.886616502967124
85,17.03673843775281,1.5919761296646047,-0.48127553232592996,-1.0888893493708174,4.49026610341573,8.58764555213483,-0.2049156860230337,9.700362751229202
86,17.235766746516852,1.5865914700958703,-0.5596452485560677,-1.0106160145985204,5.19768800094382,8.278151405000001,-0.15408836871846066,9.794596681628967
87,17.43479359269663,1.5820250807741174,-0.5425784284963922,-0.9387717409940259,5.623186979426966,8.02818883405618,-0.07128729510497754,9.811711602931474
88,17.633820400337076,1.5874982522473045,-0.6163419877657504,-0.953977070368924,5.57422149852809,7.8636150467415735,-0.16045354480926965,9.642746773615961
89,17.832847893483144,1.5938845395342451,-0.6060049810007841,-0.9246661772610759,6.443273190719102,7.18992793694382,0.05642625328221236,9.663422865501422
90,18.031874440449435,1.5830437405686384,-0.5914530040422965,-0.8300623688527613,7.329108227449439,6.682992324382022,0.1877290339469663,9.923998169818741
91,18.230902145842695,1.56953351676025,-0.8599804561999593,-0.710334684795356,7.374047579370787,6.348306345123594,0.014504806290887637,9.736336544012813
92,18.429928143707865,1.5276729395731818,-0.9353799578605919,-0.6328690220469555,7.931313128988765,5.8256829615505605,0.4219702400176405,9.85470986208595
93,18.628955901348313,1.5451060284816047,-0.9544939536650102,-0.6142961801428645,7.884189311089889,5.56374951694382,0.2503725932484169,9.66205933530055
94,18.827983523146067,1.4931068108545518,-1.0440539963279005,-0.5179956921359216,8.454474208078652,4.831781033696629,0.7575232873561799,9.782360217596954
95,19.027007620112357,1.5012738732280733,-1.0480349160296083,-0.4286511589622137,8.740120753775281,4.433174422640449,-0.03013209063112361,9.80974838542639
96,19.22603779775281,1.604547136577682,-1.1467960412735303,-0.4215053386085237,8.685805068955057,3.89730316605618,-0.3225740005761236,9.534723430284716
97,19.425064826629217,1.5904402676672846,-1.1333741648690583,-0.3236636012312203,9.437816748494383,2.62295706888764,0.662872365974382,9.842080624778111
98,19.624091763707867,1.5495150415833745,-1.0987010419566081,-0.17366529721751245,9.771770091516853,1.6708287415393257,0.7121604774682022,9.942918702358423
99,19.82311906775281,1.5585167243589746,-1.1072044234702643,-0.13019296910560235,9.7202370782809,1.2221610485325842,0.4648797325939326,9.817140851581582
100,20.022145355168536,1.5146612578180616,-1.4722381528754407,-0.07879861872723437,9.690501534775281,0.7649504475404496,0.545281265095618,9.738906918463728
101,20.221173146629212,1.4989798665326055,-1.4910109340421216,-0.038380273489256836,9.73578368394382,0.30880182796182026,0.35960225928426964,9.750463304814726
102,20.420200036853927,1.479722511187143,-1.4983927943817557,0.016029287907821807,9.936202713449438,-0.09407288127638203,0.37846926116629204,9.945612035023323
103,20.619227255280897,1.473801579730619,-1.5086543009692905,0.023995931568386523,9.759133896370788,-0.1021452972647191,0.31891755228289886,9.766589464621772
104,20.818254802921352,1.547804468668371,-1.5398578524660487,0.01922816695828551,9.791752879539326,-0.1890531528877528,0.22534877792315727,9.796795207630032
105,21.017282102471913,1.5609734408796143,-1.5483155372047832,0.019010943151103736,9.77236155183146,-0.18584031820573035,0.09602209035776404,9.774908812476975
106,21.21630931269663,1.5696584806847935,-1.551313641811732,0.01914442746184181,9.771749892910112,-0.18709722127752815,0.011130657893424722,9.773607597816286
107,21.415336487977527,1.5716999633205517,-1.551537125326532,0.019082129032862327,9.773719198224718,-0.186525901552809,-0.008825213907025842,9.775536616844034
108,21.614362944382023,1.576221615580606,-1.5502359650681443,0.019317902168103803,9.772798484595505,-0.18881790305730337,-0.05302521844404607,9.774873762744027
109,21.813390913483147,1.5799405000980837,-1.5489279892537664,0.018999336666962078,9.770123385269663,-0.18565884014382023,-0.08934100718138203,9.772507431123529
110,22.012417606966295,1.5828565918033555,-1.5471743368274415,0.019160301468247494,9.7717970944382,-0.1872719785775281,-0.11782635087753933,9.774706373392819
111,22.211442393483143,1.5928903315307665,-1.5414682085066476,0.019136281659739324,9.771037476786518,-0.1870501726224719,-0.2159388000833708,9.775304852984672
112,22.410472558426967,1.5983971049465198,-1.5369875322065005,0.019315307999458076,9.769289873977527,-0.18879773928089888,-0.26975042415280903,9.774934568871362
113,22.60949859516854,1.5982242515217626,-1.5371374127912196,0.019409721143200824,9.767912028876404,-0.18969168740674155,-0.26802974286741577,9.773489491321591
114,22.808527397078652,1.6000414251263009,-1.535740299964318,0.019216093474881003,9.767831288,-0.1878029695764045,-0.28579443425617973,9.773883366804792
115,23.00755356539326,1.6077712049291237,-1.5290325415444415,0.01936814306273344,9.76624502758427,-0.18930856665955056,-0.3613363839258427,9.774788035789602
116,23.206581103146068,1.6068460673587295,-1.5298593630965307,0.019343006404562945,9.767905192359551,-0.18908676036404495,-0.35234985693146065,9.776111741727703
117,23.405608425842694,1.6071797110786499,-1.5295213506693794,0.019424244313521355,9.765996268584269,-0.1898462797516854,-0.35554252681797754,9.774350135986062
118,23.6046355,1.6077341238853702,-1.5290465298700977,0.01940395614645449,9.7669776422809,-0.18967152228314604,-0.36100031452022474,9.775518031703248
119,23.8036634205618,1.613390468868479,-1.5239473851794934,0.019461423396734526,9.764578187044943,-0.19022940133595503,-0.41624359502471914,9.775326461221873
120,24.00268991617978,1.6118582081292518,-1.525278050570751,0.01958064848753287,9.765351081078654,-0.19139892599775282,-0.4012884547865169,9.775501203822854
121,24.201718173595506,1.6152919012497122,-1.5222067970009034,0.01946907956920256,9.761990482876405,-0.19026972906516856,-0.43473420083146064,9.773547342810312
122,24.400744963258425,1.6220386365862132,-1.5159642415848213,0.019420005012104544,9.759544029629213,-0.1898059513494382,-0.5006376434573033,9.774294777401067
123,24.599772188651688,1.6254561331980002,-1.512696671472987,0.019640385283129926,9.758125765898878,-0.19196352396292135,-0.5340094559640449,9.774641128091682
124,24.798800005280892,1.628322323005519,-1.5099820013827812,0.019674071049053044,9.756062304011236,-0.19228615285056178,-0.56195708272809,9.774150408275421
125,24.99782716269663,1.6292876495639363,-1.5090918083931382,0.019601578423847906,9.755981627415728,-0.19158712581348322,-0.571400665175281,9.774602051385271
126,25.196853880112357,1.632444246868689,-1.5060871261818016,0.01962001554849777,9.755040586561798,-0.19178204605955057,-0.6022586688606741,9.775506883472392
127,25.395880373146074,1.631930786873478,-1.506523191106206,0.01975801063123219,9.755578276786517,-0.19313977289887638,-0.5972646635595505,9.775802462158957
128,25.594907385505614,1.6370920206696706,-1.5016307886719613,0.01960734046190711,9.74936772458427,-0.19160728993370785,-0.6474131211797753,9.772839241280508
129,25.793936500112356,1.6787495312602259,-1.452682808513145,0.02311800479158393,9.839474913483146,-0.23041000031616857,-1.0670711923667417,9.948036761968025
130,25.992963755056177,1.6815699812502172,-1.4522596237191943,-0.01876598263469665,9.83443384469663,0.1819082924295506,-1.0922697678907864,9.912587848380806
131,26.19199063168539,1.6591704448634845,-1.4458609818640238,-0.08946265275469667,9.659455374325841,0.9611148519483146,-1.1887556387707865,9.785202847715349
132,26.391018699213486,1.6552540436867402,-1.4558012694033662,-0.14262337227806746,9.490230324561798,1.644050638292135,-1.2863505335876404,9.725269138826677
133,26.59004580247191,1.6923610292305316,-1.2777352871077698,-0.2647651139331443,9.220358912887638,2.519265836573034,-1.168598122735955,9.632975618475998
134,26.789073715393258,1.6809141695044754,-1.2820007051612576,-0.31665845981022295,9.425321632606742,2.6813863020224717,-1.2042484839629213,9.879512579803466
135,26.988100284943815,1.657756812471973,-1.2339175636657105,-0.3220429359091401,9.206311183044942,3.082325238876404,-0.8532698011955058,9.7556528059271
136,27.187127940898876,1.6352072198452308,-1.1841906442253964,-0.3790727592291842,9.112204712359551,3.636868616213483,-0.6325319144025843,9.840621368694293
137,27.386156022022476,1.5839152609047313,-1.119745933974281,-0.44422474063437917,8.730845204932585,4.164909472561798,-0.12778076150498874,9.701898773203691
138,27.585182997752813,1.561239691410227,-1.0707106962094843,-0.4984268337905409,8.499117840516853,4.627745869404495,0.09612291404711237,9.685327602496898
139,27.78421097595506,1.4572610424882126,-1.048702687737942,-0.5064360594004492,8.493001380629213,4.751789526943821,1.1103638089157304,9.799044120758904
140,27.98323744483146,1.4365998833549716,-1.0165049503177463,-0.5336313432246921,8.398726827685394,5.020437615674158,1.322982229577528,9.878582600130823
141,28.182265926179774,1.4635315023309219,-0.9365181137691972,-0.6218413293836627,7.847866786988763,5.67326822705618,1.0450989001235955,9.746501787444311
142,28.381292563932583,1.379321335222765,-0.8702931401884616,-0.6631736651632977,7.456001726460674,6.003511364505619,1.8572067691910108,9.754818762902213
143,28.580319632921352,1.301491722194582,-0.7604892890678925,-0.7367435938829858,6.618076945988763,6.449315724752808,2.545170163786517,9.60490308173534
144,28.779344823820225,1.1600411240525745,-0.6732877389202567,-0.7357136146411669,6.117069587303371,6.576068095910113,3.918112661101124,9.812101932193487
145,28.97837489460674,1.095666734104155,-0.6214373310217992,-0.7369210233197364,5.6766894104719094,6.551427407258427,4.4593745242359555,9.750037410155453
146,29.17740345280899,1.0218291374005488,-0.5407425385143851,-0.7473646655394223,4.967761961292135,6.560978541168539,5.035796079719102,9.654072573840734
147,29.3764300164045,0.903991507149314,-0.4789988882183504,-0.6886148203765486,4.434290200134832,6.104950904865168,5.945666891842696,9.62098071209602
148,29.575457149662924,0.7670716246528232,-0.46391222279591626,-0.5587079238976306,4.38186992152809,5.190119711235956,7.0441337864269675,9.792086883772937
149,29.774485274831456,0.6237653645118448,-0.38101228179576196,-0.46634691856332466,3.559323685898877,4.298672266224719,7.767633304112358,9.57992302121394
150,29.97351262224719,0.4456913130494593,-0.30127331032081484,-0.3171701018496666,2.922187609606742,3.067921258089888,8.860938147179775,9.833195783656878
151,30.172539743932585,0.31369019701462786,-0.1924191828536238,-0.31595146000142527,1.8059358503258423,1.9946260331910108,9.526398283707866,9.911655756052035
152,30.371567850674158,0.21160534789327953,-0.0962284974839609,-0.3176100620580776,1.2719935962617976,1.1803404213011237,9.73424451788764,9.89573601247818
153,30.570594626404496,0.14532749858788627,-0.03151624765250022,-0.31528088098612256,0.4190060983911236,0.6605870867741572,9.878284347337079,9.920718324655653
154,30.769622753707864,0.09042238102435818,0.054553636013589674,-0.3196595493420383,-0.02597153592330449,0.31675325769775275,9.80303143933708,9.809913532574805
155,30.968650098314605,0.07072849729849301,0.05919312323850653,-0.3154768383578248,-0.005108272773278651,0.14104882928977527,9.801861859404495,9.804613942756712
156,31.167677565280897,0.05981803222585031,0.05851430782898787,-0.3138477499809057,0.008442093252497753,0.0956994631024719,9.782470601404494,9.783559204930581
157,31.366705915056176,0.01003322500691151,-0.0018115275379234693,-0.009821677128504984,0.017717641788742695,0.09606914045955056,9.780702773146066,9.781203611849058
158,31.56573263292135,0.009972387372907888,-0.0016508369953527461,-0.009550813691489787,0.016144831577067413,0.09340074022123593,9.77924432652809,9.779742657816598
159,31.764760504269663,0.009787746814613814,-0.002227956501041434,-0.009402926217204052,0.02179081745948427,0.09196907909606741,9.780534808617977,9.781014051520732
160,31.963785653033707,0.00985588069797795,-0.0019461823930218502,-0.009604465915867206,0.019035038538776403,0.09395189591404496,9.781818529224719,9.782299613707321
161,32.16281607943821,0.00971143633778904,-0.0020964671109604737,-0.009440682633972153,0.02050702780345056,0.09233875680977527,9.780803669730338,9.781273208271193
162,32.361844428314605,0.010071907163144581,-0.002244892234846882,-0.009774255665052863,0.02195885269556404,0.09560536274831462,9.78113972738202,9.781643191570831
163,32.56087166977528,0.010042470932087329,-0.0023193241656650873,-0.009718657829686596,0.022684765157741572,0.0950542071803371,9.780655764460674,9.78116049079821
164,32.75989943707866,0.009873599004855774,-0.0019751279536985855,-0.009608610225153802,0.019317337868216853,0.09398550288853932,9.78086412624719,9.78134829853325
165,32.958926208988764,0.009784943128152743,-0.0020602646232070554,-0.009512410407967409,0.02015751443460899,0.09306466914123596,9.783223345089889,9.783696361921068
166,33.157955124719095,0.009624858151268956,-0.002163417994610934,-0.00934290332731144,0.021159004838516852,0.09137759499842697,9.780239062382023,9.780696920995302
167,33.35698246202247,0.00981243912606295,-0.0020485531968451936,-0.009561290491435847,0.020036528964842697,0.09351500416719101,9.78013145792135,9.780605967108883
168,33.5560098916854,0.009754907852459575,-0.0021294877512069116,-0.009475843610745615,0.020829655643078655,0.09268826991056178,9.781287568337078,9.781757930413752
169,33.75503888831461,0.009762074234476,-0.002063077532806523,-0.009486622012432265,0.020177678681629212,0.09278236990573036,9.780326468224718,9.780798131321562
170,33.95406565258426,0.009840731793343507,-0.0020704582498158324,-0.00957298498386443,0.020251614147079777,0.09363598945842697,9.780985114202247,9.781463457248748
171,34.15309357044944,0.009781479700100112,-0.0018993602371751713,-0.009546415124784153,0.018577982610576402,0.09337385459191011,9.780615431539326,9.781087690318957
172,34.35212087640449,0.009623500313304579,-0.002120060829413733,-0.00934705589560156,0.020735555788865167,0.09141792348685393,9.780023982011237,9.78048121852993
173,34.551149343595505,0.009875121847636809,-0.0020873605888399606,-0.00960096089040463,0.020412927963943818,0.09389140347988764,9.779123284842695,9.779604327434338
174,34.75017711764044,0.009822175424324661,-0.0021360729659899375,-0.009536231441573222,0.020890148283067414,0.09325959022629216,9.779183794932585,9.779659240699381
175,34.94920403696629,0.009864196506128574,-0.002152805883035514,-0.009592747594387642,0.021058183734855053,0.09382418944898878,9.780460872067415,9.780942142986385
176,35.148229627191014,0.00987811963137635,-0.0022665090737351355,-0.009576722498385648,0.022167216635550564,0.09366959672146068,9.780843959741572,9.781327869453872
177,35.34726023528089,0.009677626306612367,-0.001966518954591015,-0.009427942777986786,0.019236680953530337,0.09221777118988765,9.781240516876403,9.781704160312149
178,35.546288161348315,0.010032982201035039,-0.0022205057833912475,-0.009748390114327472,0.021716881924786515,0.09534322804932585,9.780084449303372,9.780581560766633
179,35.74531628078651,0.009910098379422166,-0.0021891130116620276,-0.009619942120173948,0.02140769706752809,0.09407960280258428,9.779298032314607,9.779781710565246
180,35.94434394573033,0.009942388118694254,-0.00232548450567445,-0.009629267480868333,0.022738536470214604,0.09416025977258427,9.778377190033707,9.77886471260988
181,36.122128017571434,0.009766554292551174,-0.0020827992321699883,-0.009477377700780425,0.020364629976328572,0.09269624011814286,9.78062831337143,9.78109988400186
