"Time (s)","Gyroscope x (rad/s)","Gyroscope y (rad/s)","Gyroscope z (rad/s)"
2.519105200E-2,1.679879380E-3,3.054326226E-4,-3.054326226E-4
2.742726900E-2,2.901609987E-3,1.527163084E-3,9.162978968E-4
2.966348600E-2,-7.635815418E-4,1.527163084E-3,3.359758761E-3
3.190557100E-2,-1.985311974E-3,3.054326226E-4,9.162978968E-4
3.414067900E-2,-2.138028387E-3,-2.138028387E-3,9.162978968E-4
3.638130200E-2,-7.635815418E-4,-2.138028387E-3,-3.054326226E-4
3.861167600E-2,1.679879380E-3,3.054326226E-4,-1.527163084E-3
4.084861400E-2,4.581489484E-4,3.054326226E-4,9.162978968E-4
4.308335500E-2,4.581489484E-4,3.054326226E-4,-1.527163084E-3
4.532194200E-2,1.679879380E-3,-2.138028387E-3,-3.054326226E-4
4.755881900E-2,3.054326226E-4,-3.359758761E-3,9.162978968E-4
4.979429300E-2,-7.635815418E-4,1.527163084E-3,-3.054326226E-4
5.203092600E-2,-7.635815418E-4,2.748893574E-3,-1.527163084E-3
5.426896400E-2,-7.635815418E-4,2.748893574E-3,9.162978968E-4
5.650980800E-2,1.679879380E-3,1.527163084E-3,9.162978968E-4
5.874393800E-2,-7.635815418E-4,1.527163084E-3,-1.527163084E-3
6.098038900E-2,-1.985311974E-3,1.527163084E-3,-1.527163084E-3
6.321220000E-2,4.581489484E-4,1.527163084E-3,-3.054326226E-4
6.545029900E-2,4.581489484E-4,-9.162978968E-4,-3.054326226E-4
6.768510100E-2,4.581489484E-4,3.054326226E-4,-3.054326226E-4
6.992240600E-2,4.581489484E-4,-2.138028387E-3,9.162978968E-4
7.215867300E-2,4.581489484E-4,2.748893574E-3,-3.054326226E-4
7.439561100E-2,4.581489484E-4,3.054326226E-4,9.162978968E-4
7.663517500E-2,-7.635815418E-4,1.527163084E-3,9.162978968E-4
7.888334400E-2,-3.207042580E-3,1.527163084E-3,-3.054326226E-4
8.111973300E-2,4.581489484E-4,-2.138028387E-3,-3.054326226E-4
8.335722000E-2,1.679879380E-3,-2.138028387E-3,9.162978968E-4
8.558958100E-2,4.581489484E-4,-9.162978968E-4,9.162978968E-4
8.782609200E-2,-3.207042580E-3,-9.162978968E-4,-3.054326226E-4
9.006248200E-2,-7.635815418E-4,3.054326226E-4,9.162978968E-4
9.229887100E-2,1.527163084E-3,-3.359758761E-3,2.138028387E-3
9.453550400E-2,4.581489484E-4,-9.162978968E-4,9.162978968E-4
9.677201500E-2,4.581489484E-4,2.748893574E-3,-3.054326226E-4
9.900889200E-2,-7.635815418E-4,-2.138028387E-3,-3.054326226E-4
1.012459530E-1,-3.207042580E-3,3.054326226E-4,2.138028387E-3
1.034815490E-1,-1.985311974E-3,3.054326226E-4,-3.054326226E-4
1.057180600E-1,-1.985311974E-3,3.054326226E-4,-1.527163084E-3
1.079542660E-1,-1.985311974E-3,3.970623948E-3,9.162978968E-4
1.101912050E-1,4.581489484E-4,-2.138028387E-3,-3.054326226E-4
1.124272890E-1,-7.635815418E-4,3.054326226E-4,9.162978968E-4
1.146638610E-1,-7.635815418E-4,2.748893574E-3,-3.054326226E-4
1.169004330E-1,-7.635815418E-4,1.527163084E-3,9.162978968E-4
1.191380430E-1,4.581489484E-4,1.527163084E-3,-3.054326226E-4
1.213733330E-1,-7.635815418E-4,1.527163084E-3,-3.054326226E-4
1.236096620E-1,4.581489484E-4,1.527163084E-3,2.138028387E-3
1.258419000E-1,4.581489484E-4,1.527163084E-3,-3.054326226E-4
1.280677910E-1,-9.162978968E-4,-2.138028387E-3,9.162978968E-4
1.303177300E-1,4.581489484E-4,-2.138028387E-3,9.162978968E-4
1.325441100E-1,-2.138028387E-3,-2.138028387E-3,-3.054326226E-4
1.347963680E-1,4.581489484E-4,3.054326226E-4,9.162978968E-4
1.370292780E-1,-1.985311974E-3,1.527163084E-3,-3.054326226E-4
1.392681080E-1,4.581489484E-4,3.054326226E-4,9.162978968E-4
1.414985160E-1,2.901609987E-3,3.054326226E-4,-3.054326226E-4
1.437259340E-1,1.679879380E-3,3.054326226E-4,9.162978968E-4
1.459718440E-1,4.581489484E-4,-2.138028387E-3,-3.054326226E-4
1.481998720E-1,1.679879380E-3,-9.162978968E-4,-3.054326226E-4
1.504507860E-1,1.679879380E-3,3.054326226E-4,9.162978968E-4
1.526841240E-1,4.581489484E-4,-9.162978968E-4,9.162978968E-4
1.549243580E-1,3.054326226E-4,-2.138028387E-3,2.138028387E-3
1.571572080E-1,-7.635815418E-4,-9.162978968E-4,-1.527163084E-3
1.593906670E-1,-3.207042580E-3,1.527163084E-3,-3.054326226E-4
1.616187560E-1,-7.635815418E-4,-2.138028387E-3,-3.054326226E-4
1.638664370E-1,4.581489484E-4,-9.162978968E-4,9.162978968E-4
1.661028260E-1,4.581489484E-4,-9.162978968E-4,-3.054326226E-4
1.683419610E-1,3.054326226E-4,-3.359758761E-3,-3.054326226E-4
1.705762140E-1,4.581489484E-4,3.054326226E-4,9.162978968E-4
1.728132750E-1,1.679879380E-3,1.527163084E-3,3.359758761E-3
1.750486870E-1,4.581489484E-4,1.527163084E-3,-3.054326226E-4
1.772851990E-1,-7.635815418E-4,1.527163084E-3,2.138028387E-3
1.795215270E-1,-7.635815418E-4,2.748893574E-3,9.162978968E-4
1.817581600E-1,4.581489484E-4,3.970623948E-3,-3.054326226E-4
1.839947320E-1,-7.635815418E-4,-9.162978968E-4,9.162978968E-4
1.862312440E-1,-7.635815418E-4,3.970623948E-3,-3.054326226E-4
1.884679380E-1,4.581489484E-4,-9.162978968E-4,-3.054326226E-4
1.907053650E-1,3.054326226E-4,-4.581489135E-3,9.162978968E-4
1.929404720E-1,1.679879380E-3,-2.138028387E-3,-3.054326226E-4
1.951771050E-1,1.679879380E-3,2.748893574E-3,9.162978968E-4
1.974103820E-1,4.581489484E-4,3.054326226E-4,9.162978968E-4
1.996385310E-1,1.679879380E-3,-2.138028387E-3,9.162978968E-4
2.018875550E-1,4.581489484E-4,-9.162978968E-4,-3.054326226E-4
2.041230890E-1,1.679879380E-3,3.054326226E-4,9.162978968E-4
2.063626520E-1,-7.635815418E-4,1.527163084E-3,-3.054326226E-4
2.085967220E-1,-7.635815418E-4,3.970623948E-3,9.162978968E-4
2.108323180E-1,1.679879380E-3,1.527163084E-3,9.162978968E-4
2.130690120E-1,-7.635815418E-4,-9.162978968E-4,9.162978968E-4
2.153054630E-1,-2.138028387E-3,-2.138028387E-3,2.138028387E-3
2.175419130E-1,-3.207042580E-3,3.054326226E-4,2.138028387E-3
2.197786070E-1,4.581489484E-4,1.527163084E-3,9.162978968E-4
2.220146300E-1,-7.635815418E-4,1.527163084E-3,-3.054326226E-4
2.242515680E-1,-7.635815418E-4,1.527163084E-3,-1.527163084E-3
2.264886900E-1,-7.635815418E-4,2.748893574E-3,-3.054326226E-4
2.287239800E-1,-1.985311974E-3,3.054326226E-4,-3.054326226E-4
2.309607360E-1,-9.162978968E-4,-3.359758761E-3,-1.527163084E-3
2.331968200E-1,1.679879380E-3,3.054326226E-4,-3.054326226E-4
2.354337580E-1,4.581489484E-4,-9.162978968E-4,-3.054326226E-4
2.376702690E-1,-7.635815418E-4,1.527163084E-3,2.138028387E-3
2.399068420E-1,4.581489484E-4,3.054326226E-4,2.138028387E-3
2.421434140E-1,1.679879380E-3,-2.138028387E-3,-3.054326226E-4
2.443806580E-1,-7.635815418E-4,-9.162978968E-4,9.162978968E-4
2.466160090E-1,-7.635815418E-4,2.748893574E-3,-3.054326226E-4
2.488526430E-1,4.581489484E-4,3.054326226E-4,-3.054326226E-4
2.510889710E-1,-2.138028387E-3,-2.138028387E-3,9.162978968E-4
2.533257870E-1,-1.985311974E-3,1.527163084E-3,9.162978968E-4
2.555592460E-1,4.581489484E-4,1.527163084E-3,-3.054326226E-4
2.577842220E-1,-7.635815418E-4,1.527163084E-3,3.359758761E-3
2.600234800E-1,-7.635815418E-4,1.527163084E-3,2.138028387E-3
2.622725030E-1,1.679879380E-3,1.527163084E-3,2.138028387E-3
2.645076720E-1,1.679879380E-3,2.748893574E-3,9.162978968E-4
2.667352110E-1,2.901609987E-3,-9.162978968E-4,-1.527163084E-3
2.689808170E-1,1.679879380E-3,1.527163084E-3,-1.527163084E-3
2.712178770E-1,4.581489484E-4,2.748893574E-3,-1.527163084E-3
2.734579280E-1,-7.635815418E-4,-9.162978968E-4,-3.054326226E-4
2.756902890E-1,-1.985311974E-3,1.527163084E-3,9.162978968E-4
2.779272880E-1,-7.635815418E-4,-2.138028387E-3,9.162978968E-4
2.801641050E-1,1.679879380E-3,2.748893574E-3,9.162978968E-4
2.823997620E-1,1.679879380E-3,2.748893574E-3,-3.054326226E-4
2.846362120E-1,2.901609987E-3,1.527163084E-3,-1.527163084E-3
2.868723570E-1,4.581489484E-4,3.054326226E-4,-1.527163084E-3
2.891092340E-1,4.581489484E-4,-9.162978968E-4,-3.054326226E-4
2.913456850E-1,-7.635815418E-4,1.527163084E-3,-3.054326226E-4
2.935813420E-1,-7.635815418E-4,1.527163084E-3,9.162978968E-4
2.958167540E-1,4.581489484E-4,-9.162978968E-4,2.138028387E-3
2.980561950E-1,4.581489484E-4,3.054326226E-4,2.138028387E-3
3.002916680E-1,4.581489484E-4,3.054326226E-4,9.162978968E-4
3.025287290E-1,2.901609987E-3,-2.138028387E-3,9.162978968E-4
3.047644470E-1,4.581489484E-4,3.054326226E-4,-3.054326226E-4
3.070010190E-1,4.581489484E-4,3.054326226E-4,-1.527163084E-3
3.092374080E-1,1.679879380E-3,1.527163084E-3,9.162978968E-4
3.114741640E-1,1.679879380E-3,3.054326226E-4,9.162978968E-4
3.137107970E-1,2.901609987E-3,3.054326226E-4,-1.527163084E-3
3.159451110E-1,2.901609987E-3,-2.138028387E-3,-3.054326226E-4
3.181714290E-1,-7.635815418E-4,1.527163084E-3,-3.054326226E-4
3.204199640E-1,-7.635815418E-4,-9.162978968E-4,-3.054326226E-4
3.226560480E-1,-7.635815418E-4,1.527163084E-3,-3.054326226E-4
3.248958560E-1,-7.635815418E-4,2.748893574E-3,-3.054326226E-4
3.271291930E-1,-7.635815418E-4,-9.162978968E-4,-1.527163084E-3
3.293652770E-1,4.581489484E-4,1.527163084E-3,-1.527163084E-3
3.316004450E-1,1.679879380E-3,3.054326226E-4,-3.054326226E-4
3.338399470E-1,-7.635815418E-4,3.054326226E-4,-1.527163084E-3
3.360758480E-1,4.581489484E-4,-9.162978968E-4,9.162978968E-4
3.383145560E-1,4.581489484E-4,-9.162978968E-4,-3.054326226E-4
3.405478330E-1,-7.635815418E-4,3.054326226E-4,-1.527163084E-3
3.427847710E-1,4.581489484E-4,1.527163084E-3,9.162978968E-4
3.450216490E-1,4.581489484E-4,2.748893574E-3,9.162978968E-4
3.472574280E-1,1.679879380E-3,3.054326226E-4,-3.054326226E-4
3.494945490E-1,-7.635815418E-4,1.527163084E-3,-3.054326226E-4
3.517314880E-1,2.901609987E-3,1.527163084E-3,-3.054326226E-4
3.539671440E-1,4.581489484E-4,3.970623948E-3,-3.054326226E-4
3.562005430E-1,4.581489484E-4,3.054326226E-4,-3.054326226E-4
3.584237480E-1,1.679879380E-3,2.748893574E-3,-1.527163084E-3
3.606584900E-1,-7.635815418E-4,3.054326226E-4,9.162978968E-4
3.629129450E-1,-1.985311974E-3,-2.138028387E-3,-3.054326226E-4
3.651523260E-1,-2.138028387E-3,-3.359758761E-3,2.138028387E-3
3.673906070E-1,-7.635815418E-4,-9.162978968E-4,9.162978968E-4
3.696237000E-1,4.581489484E-4,-2.138028387E-3,9.162978968E-4
3.718592340E-1,1.679879380E-3,3.054326226E-4,2.138028387E-3
3.740955620E-1,-7.635815418E-4,3.970623948E-3,9.162978968E-4
3.763315860E-1,-1.985311974E-3,1.527163084E-3,9.162978968E-4
3.785683410E-1,-7.635815418E-4,2.748893574E-3,2.138028387E-3
3.808038140E-1,4.581489484E-4,2.748893574E-3,-3.054326226E-4
3.830377010E-1,-1.985311974E-3,3.054326226E-4,-3.054326226E-4
3.852781190E-1,-1.985311974E-3,3.054326226E-4,-3.054326226E-4
3.875111500E-1,-2.138028387E-3,-2.138028387E-3,9.162978968E-4
3.897353320E-1,-7.635815418E-4,1.527163084E-3,9.162978968E-4
3.919871030E-1,-1.985311974E-3,3.054326226E-4,-3.054326226E-4
3.942234920E-1,-7.635815418E-4,1.527163084E-3,9.162978968E-4
3.964611020E-1,4.581489484E-4,-9.162978968E-4,-3.054326226E-4
3.986836970E-1,4.581489484E-4,3.054326226E-4,9.162978968E-4
4.009336970E-1,-7.635815418E-4,2.748893574E-3,-3.054326226E-4
4.031719170E-1,1.679879380E-3,3.054326226E-4,9.162978968E-4
4.054103820E-1,1.679879380E-3,-9.162978968E-4,2.138028387E-3
4.076429870E-1,4.581489484E-4,-9.162978968E-4,9.162978968E-4
4.098789490E-1,1.679879380E-3,3.054326226E-4,9.162978968E-4
4.121152770E-1,1.679879380E-3,1.527163084E-3,9.162978968E-4
4.143520930E-1,-1.985311974E-3,1.527163084E-3,2.138028387E-3
4.165895810E-1,4.581489484E-4,3.054326226E-4,-1.527163084E-3
4.188250550E-1,2.901609987E-3,-2.138028387E-3,-3.054326226E-4
4.210619320E-1,4.581489484E-4,-9.162978968E-4,9.162978968E-4
4.232988100E-1,4.581489484E-4,3.054326226E-4,-3.054326226E-4
4.255342220E-1,4.581489484E-4,3.054326226E-4,-1.527163084E-3
4.277708550E-1,-1.985311974E-3,-9.162978968E-4,9.162978968E-4
4.300073060E-1,-7.635815418E-4,-9.162978968E-4,9.162978968E-4
4.322437560E-1,-7.635815418E-4,-9.162978968E-4,-3.054326226E-4
4.344803280E-1,-7.635815418E-4,-9.162978968E-4,9.162978968E-4
4.367167780E-1,1.527163113E-4,-1.069014147E-2,2.138028387E-3
4.389534720E-1,-2.290744567E-3,-1.664607786E-2,9.162978968E-4
4.411907770E-1,-2.138028387E-3,-6.872233935E-3,9.162978968E-4
4.434263730E-1,4.581489484E-4,3.970623948E-3,9.162978968E-4
4.456629450E-1,-7.635815418E-4,3.970623948E-3,9.162978968E-4
4.478989680E-1,-1.985311974E-3,2.748893574E-3,-3.054326226E-4
4.501355410E-1,-1.985311974E-3,1.527163084E-3,-3.054326226E-4
4.523721130E-1,-1.985311974E-3,2.748893574E-3,2.138028387E-3
4.546087460E-1,1.679879380E-3,-9.162978968E-4,9.162978968E-4
4.568456230E-1,-7.635815418E-4,3.054326226E-4,-3.054326226E-4
4.590828060E-1,4.581489484E-4,-9.162978968E-4,2.138028387E-3
4.613179140E-1,-1.985311974E-3,1.527163084E-3,9.162978968E-4
4.635544860E-1,4.581489484E-4,-9.162978968E-4,-3.054326226E-4
4.657907530E-1,-7.635815418E-4,-9.162978968E-4,-3.054326226E-4
4.680274470E-1,-7.635815418E-4,1.527163084E-3,-3.054326226E-4
4.702639580E-1,4.581489484E-4,1.527163084E-3,-3.054326226E-4
4.725002870E-1,4.581489484E-4,3.054326226E-4,-3.054326226E-4
4.747371640E-1,1.679879380E-3,3.054326226E-4,-1.527163084E-3
4.769744080E-1,1.679879380E-3,3.054326226E-4,-2.748893574E-3
4.792092700E-1,4.581489484E-4,-9.162978968E-4,-3.054326226E-4
4.814441950E-1,4.581489484E-4,-9.162978968E-4,-1.527163084E-3
4.836826600E-1,-1.985311974E-3,3.054326226E-4,9.162978968E-4
4.859188050E-1,-1.985311974E-3,1.527163084E-3,2.138028387E-3
4.881544000E-1,-3.207042580E-3,3.054326226E-4,2.138028387E-3
4.903921320E-1,-7.635815418E-4,3.054326226E-4,-1.527163084E-3
4.926290100E-1,1.679879380E-3,-2.138028387E-3,-3.054326226E-4
4.948667410E-1,3.054326226E-4,-3.359758761E-3,-3.054326226E-4
4.971016660E-1,4.581489484E-4,-9.162978968E-4,-1.527163084E-3
4.993381770E-1,4.581489484E-4,-2.138028387E-3,-3.054326226E-4
5.015742610E-1,1.679879380E-3,3.054326226E-4,-3.054326226E-4
5.038111390E-1,-7.635815418E-4,3.054326226E-4,-3.054326226E-4
5.060447200E-1,2.901609987E-3,-9.162978968E-4,-1.527163084E-3
5.082723200E-1,4.581489484E-4,-9.162978968E-4,2.138028387E-3
5.105209160E-1,1.679879380E-3,-9.162978968E-4,-3.054326226E-4
5.127583430E-1,-9.162978968E-4,-4.581489135E-3,-3.054326226E-4
5.149963810E-1,-7.635815418E-4,1.527163084E-3,-3.054326226E-4
5.172269100E-1,-2.138028387E-3,-4.581489135E-3,9.162978968E-4
5.194518850E-1,-1.985311974E-3,-9.162978968E-4,9.162978968E-4
5.216893120E-1,-9.162978968E-4,-2.138028387E-3,2.138028387E-3
5.239278990E-1,-7.635815418E-4,-9.162978968E-4,-3.054326226E-4
5.261789980E-1,4.581489484E-4,-2.138028387E-3,-3.054326226E-4
5.284153870E-1,3.054326226E-4,-4.581489135E-3,-1.527163084E-3
5.306528740E-1,-7.635815418E-4,-2.138028387E-3,-3.054326226E-4
5.328852960E-1,-3.359758761E-3,-3.207042580E-3,-3.054326226E-4
5.351218690E-1,3.054326226E-4,-4.581489135E-3,9.162978968E-4
5.373581970E-1,-9.162978968E-4,-3.359758761E-3,2.138028387E-3
5.395831730E-1,-7.635815418E-4,3.054326226E-4,9.162978968E-4
5.418195620E-1,-3.207042580E-3,1.527163084E-3,-3.054326226E-4
5.440561340E-1,4.581489484E-4,3.054326226E-4,9.162978968E-4
5.462929500E-1,-9.162978968E-4,-3.359758761E-3,2.138028387E-3
5.485301330E-1,-2.138028387E-3,-3.359758761E-3,-3.054326226E-4
5.507657890E-1,1.679879380E-3,-9.162978968E-4,-1.527163084E-3
5.530026670E-1,-7.635815418E-4,-2.138028387E-3,-1.527163084E-3
5.552391170E-1,-7.635815418E-4,-9.162978968E-4,-1.527163084E-3
5.574749570E-1,4.581489484E-4,-2.138028387E-3,9.162978968E-4
5.597184870E-1,2.901609987E-3,-9.162978968E-4,9.162978968E-4
5.619605520E-1,4.581489484E-4,-2.138028387E-3,9.162978968E-4
5.641948670E-1,2.901609987E-3,-9.162978968E-4,2.138028387E-3
5.664352230E-1,1.679879380E-3,-2.138028387E-3,2.138028387E-3
5.686689880E-1,-7.635815418E-4,3.054326226E-4,9.162978968E-4
5.709062920E-1,4.581489484E-4,3.054326226E-4,9.162978968E-4
5.731417050E-1,1.679879380E-3,3.054326226E-4,-3.054326226E-4
5.753787050E-1,-3.359758761E-3,-2.138028387E-3,9.162978968E-4
5.776148500E-1,-2.138028387E-3,-3.359758761E-3,-3.054326226E-4
5.798516050E-1,-1.985311974E-3,-9.162978968E-4,-3.054326226E-4
5.820879330E-1,4.581489484E-4,1.527163084E-3,-3.054326226E-4
5.843254820E-1,4.581489484E-4,-2.138028387E-3,-3.054326226E-4
5.865605890E-1,1.679879380E-3,-3.359758761E-3,-1.527163084E-3
5.887974670E-1,1.679879380E-3,3.054326226E-4,-3.054326226E-4
5.910334290E-1,4.581489484E-4,-9.162978968E-4,9.162978968E-4
5.932701230E-1,1.679879380E-3,3.054326226E-4,-1.527163084E-3
5.955066950E-1,4.581489484E-4,3.970623948E-3,-3.054326226E-4
5.977435730E-1,4.581489484E-4,3.970623948E-3,-1.527163084E-3
5.999803890E-1,-1.985311974E-3,3.054326226E-4,-3.054326226E-4
6.022173280E-1,-9.162978968E-4,-4.581489135E-3,-1.527163084E-3
6.044524350E-1,1.679879380E-3,3.054326226E-4,-1.527163084E-3
6.066892510E-1,4.581489484E-4,1.527163084E-3,-3.054326226E-4
6.089255800E-1,4.581489484E-4,3.054326226E-4,9.162978968E-4
6.111592220E-1,1.679879380E-3,-9.162978968E-4,9.162978968E-4
6.133865170E-1,-3.207042580E-3,3.054326226E-4,9.162978968E-4
6.156349910E-1,-3.359758761E-3,-2.138028387E-3,9.162978968E-4
6.178716850E-1,1.679879380E-3,3.054326226E-4,-1.527163084E-3
6.201122250E-1,-1.985311974E-3,3.054326226E-4,-3.054326226E-4
6.223445250E-1,-7.635815418E-4,3.970623948E-3,-1.527163084E-3
6.245809140E-1,-7.635815418E-4,1.527163084E-3,-3.054326226E-4
6.268171810E-1,-1.985311974E-3,3.054326226E-4,-3.054326226E-4
6.290510680E-1,-3.359758761E-3,-3.207042580E-3,9.162978968E-4
6.312759820E-1,-1.985311974E-3,3.970623948E-3,-3.054326226E-4
6.335162170E-1,-7.635815418E-4,2.748893574E-3,-3.054326226E-4
6.357638360E-1,4.581489484E-4,2.748893574E-3,-1.527163084E-3
6.380041920E-1,4.581489484E-4,3.054326226E-4,-1.527163084E-3
6.402388110E-1,-7.635815418E-4,3.054326226E-4,9.162978968E-4
6.424726990E-1,-7.635815418E-4,3.054326226E-4,-3.054326226E-4
6.447089660E-1,4.581489484E-4,3.970623948E-3,-3.054326226E-4
6.469459650E-1,6.108652451E-4,5.192354787E-3,-3.054326226E-4
6.491824160E-1,-1.985311974E-3,3.970623948E-3,-3.054326226E-4
6.514185000E-1,-7.635815418E-4,2.748893574E-3,9.162978968E-4
6.536553770E-1,4.581489484E-4,2.748893574E-3,9.162978968E-4
6.558899350E-1,-1.985311974E-3,1.527163084E-3,-3.054326226E-4
6.581136290E-1,4.581489484E-4,3.054326226E-4,9.162978968E-4
6.603528260E-1,4.581489484E-4,1.527163084E-3,-3.054326226E-4
6.626005680E-1,-7.635815418E-4,2.748893574E-3,9.162978968E-4
6.648403740E-1,1.679879380E-3,3.054326226E-4,9.162978968E-4
6.670770070E-1,1.679879380E-3,3.054326226E-4,9.162978968E-4
6.693107110E-1,1.679879380E-3,-9.162978968E-4,2.138028387E-3
6.715475280E-1,4.581489484E-4,2.748893574E-3,-3.054326226E-4
6.737847100E-1,4.123340361E-3,1.374446787E-3,-1.527163084E-3
6.760170100E-1,1.679879380E-3,3.054326226E-4,-3.054326226E-4
6.782450990E-1,4.581489484E-4,1.527163084E-3,-3.054326226E-4
6.804924740E-1,4.581489484E-4,3.054326226E-4,9.162978968E-4
6.827295960E-1,-9.162978968E-4,-3.359758761E-3,9.162978968E-4
6.849687310E-1,-7.635815418E-4,-9.162978968E-4,2.138028387E-3
6.872024960E-1,-7.635815418E-4,3.054326226E-4,9.162978968E-4
6.894390070E-1,-7.635815418E-4,-9.162978968E-4,-3.054326226E-4
6.916763120E-1,-2.138028387E-3,-3.359758761E-3,9.162978968E-4
6.939117250E-1,-3.359758761E-3,-3.207042580E-3,9.162978968E-4
6.961485410E-1,4.581489484E-4,-9.162978968E-4,2.138028387E-3
6.983846250E-1,4.581489484E-4,-2.138028387E-3,9.162978968E-4
7.006216850E-1,3.054326226E-4,-3.359758761E-3,2.138028387E-3
7.028586240E-1,4.581489484E-4,-9.162978968E-4,-3.054326226E-4
7.050940980E-1,2.901609987E-3,-3.359758761E-3,-3.054326226E-4
7.073311580E-1,4.581489484E-4,3.054326226E-4,-1.527163084E-3
7.095682190E-1,4.581489484E-4,-9.162978968E-4,9.162978968E-4
7.118003960E-1,-7.635815418E-4,-9.162978968E-4,9.162978968E-4
7.140264100E-1,-7.635815418E-4,3.054326226E-4,-3.054326226E-4
7.162763490E-1,1.679879380E-3,-9.162978968E-4,-2.748893574E-3
7.185129820E-1,1.679879380E-3,3.054326226E-4,-1.527163084E-3
7.207515680E-1,-7.635815418E-4,-2.138028387E-3,-3.054326226E-4
7.229802670E-1,1.527163084E-3,-4.581489135E-3,-3.054326226E-4
7.252228210E-1,1.679879380E-3,-2.138028387E-3,9.162978968E-4
7.274580510E-1,1.679879380E-3,-9.162978968E-4,-3.054326226E-4
7.296880920E-1,1.679879380E-3,-9.162978968E-4,-1.527163084E-3
7.319322930E-1,-9.162978968E-4,-4.581489135E-3,-3.054326226E-4
7.341685000E-1,4.581489484E-4,-2.138028387E-3,-3.054326226E-4
7.364073300E-1,3.054326226E-4,-3.359758761E-3,-3.054326226E-4
7.386414000E-1,-7.635815418E-4,-2.138028387E-3,-3.054326226E-4
7.408774220E-1,3.054326226E-4,-3.359758761E-3,9.162978968E-4
7.431125910E-1,-7.635815418E-4,-9.162978968E-4,9.162978968E-4
7.453518490E-1,2.901609987E-3,-9.162978968E-4,-3.054326226E-4
7.475842100E-1,2.901609987E-3,-9.162978968E-4,9.162978968E-4
7.498122980E-1,-7.635815418E-4,2.748893574E-3,9.162978968E-4
7.520599180E-1,-7.635815418E-4,-9.162978968E-4,-3.054326226E-4
7.542940480E-1,3.054326226E-4,-3.359758761E-3,9.162978968E-4
7.565216490E-1,-2.138028387E-3,-4.581489135E-3,-3.054326226E-4
7.587582210E-1,-7.635815418E-4,3.054326226E-4,-1.527163084E-3
7.610066950E-1,4.581489484E-4,3.054326226E-4,-3.054326226E-4
7.632468680E-1,2.901609987E-3,-9.162978968E-4,9.162978968E-4
7.654820370E-1,4.581489484E-4,1.527163084E-3,9.162978968E-4
7.677130550E-1,-3.207042580E-3,-9.162978968E-4,-3.054326226E-4
7.699406550E-1,-1.985311974E-3,-9.162978968E-4,-3.054326226E-4
7.721888240E-1,-7.635815418E-4,-9.162978968E-4,9.162978968E-4
7.744260680E-1,-1.985311974E-3,-9.162978968E-4,9.162978968E-4
7.766644110E-1,4.581489484E-4,3.054326226E-4,-1.527163084E-3
7.788950620E-1,1.679879380E-3,-9.162978968E-4,-2.748893574E-3
7.811233340E-1,-9.162978968E-4,-2.138028387E-3,9.162978968E-4
7.833708920E-1,-1.985311974E-3,1.527163084E-3,9.162978968E-4
7.856075860E-1,-7.635815418E-4,2.748893574E-3,3.359758761E-3
7.878468440E-1,-7.635815418E-4,2.748893574E-3,9.162978968E-4
7.900813410E-1,1.679879380E-3,2.748893574E-3,-3.054326226E-4
7.923196840E-1,4.581489484E-4,2.748893574E-3,-3.054326226E-4
7.945535090E-1,3.054326226E-4,-4.581489135E-3,-3.054326226E-4
7.967900810E-1,2.748893574E-3,-7.024950348E-3,-3.054326226E-4
7.990267140E-1,-9.162978968E-4,-7.024950348E-3,-3.054326226E-4
8.012627380E-1,2.901609987E-3,-2.138028387E-3,-3.054326226E-4
8.034993100E-1,1.679879380E-3,3.054326226E-4,-3.054326226E-4
8.057354550E-1,4.581489484E-4,3.054326226E-4,-2.748893574E-3
8.079728210E-1,3.054326226E-4,-3.359758761E-3,9.162978968E-4
8.102100640E-1,4.581489484E-4,3.054326226E-4,9.162978968E-4
8.124454160E-1,4.581489484E-4,-9.162978968E-4,9.162978968E-4
8.146819880E-1,-9.162978968E-4,-2.138028387E-3,9.162978968E-4
8.169192320E-1,-3.359758761E-3,-9.162978968E-4,2.138028387E-3
8.191548280E-1,1.679879380E-3,1.527163084E-3,-3.054326226E-4
8.213911560E-1,-7.635815418E-4,1.527163084E-3,-3.054326226E-4
8.236271790E-1,4.581489484E-4,-2.138028387E-3,9.162978968E-4
8.258633230E-1,4.581489484E-4,3.054326226E-4,9.162978968E-4
8.280947080E-1,-3.207042580E-3,3.054326226E-4,-1.527163084E-3
8.303249940E-1,-1.985311974E-3,2.748893574E-3,9.162978968E-4
8.325735900E-1,-1.985311974E-3,2.748893574E-3,-3.054326226E-4
8.348118100E-1,-1.985311974E-3,2.748893574E-3,-3.054326226E-4
8.370494190E-1,-7.635815418E-4,3.054326226E-4,9.162978968E-4
8.392828180E-1,1.679879380E-3,2.748893574E-3,-1.527163084E-3
8.415190860E-1,1.679879380E-3,1.527163084E-3,9.162978968E-4
8.437562070E-1,1.679879380E-3,-9.162978968E-4,-3.054326226E-4
8.459919250E-1,4.581489484E-4,-9.162978968E-4,3.359758761E-3
8.482225160E-1,1.679879380E-3,3.054326226E-4,9.162978968E-4
8.504656800E-1,-7.635815418E-4,3.054326226E-4,-3.054326226E-4
8.527026790E-1,-7.635815418E-4,3.970623948E-3,-3.054326226E-4
8.549399230E-1,2.901609987E-3,2.596177394E-3,9.162978968E-4
8.571748470E-1,1.679879380E-3,-9.162978968E-4,9.162978968E-4
8.594109920E-1,4.581489484E-4,3.054326226E-4,-3.054326226E-4
8.616479920E-1,-7.635815418E-4,1.527163084E-3,-3.054326226E-4
8.638841370E-1,-7.635815418E-4,2.748893574E-3,3.359758761E-3
8.661179010E-1,1.679879380E-3,2.748893574E-3,-3.054326226E-4
8.683452570E-1,1.832595794E-3,5.039638374E-3,-1.527163084E-3
8.705947690E-1,6.108652451E-4,6.414085161E-3,-3.054326226E-4
8.728298760E-1,-7.635815418E-4,2.748893574E-3,4.581489135E-3
8.750699890E-1,-7.635815418E-4,2.748893574E-3,2.138028387E-3
8.773037540E-1,4.581489484E-4,3.970623948E-3,9.162978968E-4
8.795396540E-1,4.581489484E-4,3.054326226E-4,2.138028387E-3
8.817759820E-1,1.679879380E-3,-9.162978968E-4,9.162978968E-4
8.840125550E-1,-1.985311974E-3,1.527163084E-3,-3.054326226E-4
8.862494320E-1,-7.635815418E-4,3.970623948E-3,9.162978968E-4
8.884869200E-1,-6.108652451E-4,7.635815535E-3,9.162978968E-4
8.907219660E-1,-7.635815418E-4,2.748893574E-3,9.162978968E-4
8.929585390E-1,-7.635815418E-4,-9.162978968E-4,9.162978968E-4
8.951945620E-1,-3.207042580E-3,3.054326226E-4,-3.054326226E-4
8.974314390E-1,-1.985311974E-3,2.748893574E-3,-3.054326226E-4
8.996678280E-1,4.123340361E-3,1.374446787E-3,-3.054326226E-4
9.019045830E-1,1.679879380E-3,-9.162978968E-4,-3.054326226E-4
9.041409720E-1,-1.985311974E-3,3.054326226E-4,9.162978968E-4
9.063785210E-1,-7.635815418E-4,1.527163084E-3,2.138028387E-3
9.086137510E-1,-7.635815418E-4,-9.162978968E-4,2.138028387E-3
9.108502010E-1,1.679879380E-3,2.748893574E-3,-3.054326226E-4
9.130871390E-1,4.581489484E-4,2.748893574E-3,2.138028387E-3
9.153262750E-1,4.581489484E-4,3.054326226E-4,9.162978968E-4
9.175609550E-1,4.581489484E-4,-9.162978968E-4,9.162978968E-4
9.197964900E-1,1.679879380E-3,1.527163084E-3,-3.054326226E-4
9.220323910E-1,-7.635815418E-4,3.054326226E-4,9.162978968E-4
9.242700620E-1,4.581489484E-4,-9.162978968E-4,2.138028387E-3
9.265056580E-1,4.581489484E-4,-9.162978968E-4,9.162978968E-4
9.287422910E-1,-7.635815418E-4,-9.162978968E-4,-3.054326226E-4
9.309785580E-1,1.679879380E-3,-2.138028387E-3,9.162978968E-4
9.332151300E-1,4.581489484E-4,1.527163084E-3,-3.054326226E-4
9.354514580E-1,-7.635815418E-4,-9.162978968E-4,2.138028387E-3
9.376879700E-1,4.581489484E-4,-9.162978968E-4,9.162978968E-4
9.399246640E-1,-1.985311974E-3,1.527163084E-3,2.138028387E-3
9.421591610E-1,4.581489484E-4,3.970623948E-3,9.162978968E-4
9.443852960E-1,4.581489484E-4,3.054326226E-4,9.162978968E-4
9.466338930E-1,4.581489484E-4,3.054326226E-4,-3.054326226E-4
9.488701600E-1,4.581489484E-4,1.527163084E-3,9.162978968E-4
9.511100890E-1,1.679879380E-3,3.970623948E-3,-3.054326226E-4
9.533436090E-1,-7.635815418E-4,2.748893574E-3,2.138028387E-3
9.555799370E-1,4.581489484E-4,1.527163084E-3,9.162978968E-4
9.578167540E-1,4.581489484E-4,1.527163084E-3,2.138028387E-3
9.600539370E-1,4.581489484E-4,3.970623948E-3,-3.054326226E-4
9.622891050E-1,1.679879380E-3,3.970623948E-3,2.138028387E-3
9.645256770E-1,-1.985311974E-3,3.970623948E-3,9.162978968E-4
9.667619450E-1,-7.635815418E-4,2.748893574E-3,3.359758761E-3
9.689987000E-1,4.581489484E-4,1.527163084E-3,9.162978968E-4
9.712354550E-1,4.581489484E-4,3.054326226E-4,-3.054326226E-4
9.734717220E-1,4.581489484E-4,-9.162978968E-4,9.162978968E-4
9.757084160E-1,1.679879380E-3,1.527163084E-3,9.162978968E-4
9.779447440E-1,1.679879380E-3,-9.162978968E-4,-3.054326226E-4
9.801768000E-1,-4.428773187E-3,1.527163084E-3,9.162978968E-4
9.824175840E-1,-3.207042580E-3,2.748893574E-3,9.162978968E-4
9.846538510E-1,-7.635815418E-4,1.527163084E-3,2.138028387E-3
9.868920710E-1,-3.207042580E-3,2.748893574E-3,-3.054326226E-4
9.891283380E-1,-7.635815418E-4,1.527163084E-3,-3.054326226E-4
9.913638730E-1,4.581489484E-4,-9.162978968E-4,-3.054326226E-4
9.936004450E-1,-7.635815418E-4,2.748893574E-3,9.162978968E-4
9.958360410E-1,4.581489484E-4,3.054326226E-4,-3.054326226E-4
9.980673640E-1,1.679879380E-3,3.054326226E-4,9.162978968E-4
1.000309308E0,-9.162978968E-4,-3.359758761E-3,9.162978968E-4
1.002545453E0,4.581489484E-4,2.748893574E-3,3.359758761E-3
1.004783917E0,-7.635815418E-4,1.527163084E-3,2.138028387E-3
1.007018413E0,-7.635815418E-4,3.054326226E-4,2.138028387E-3
1.009249737E0,-7.635815418E-4,2.748893574E-3,9.162978968E-4
1.011476910E0,-5.650503561E-3,4.581489484E-4,2.138028387E-3
1.013729535E0,1.679879380E-3,1.527163084E-3,9.162978968E-4
1.015962201E0,1.832595794E-3,5.192354787E-3,9.162978968E-4
1.018193402E0,1.679879380E-3,2.748893574E-3,9.162978968E-4
1.020437787E0,4.581489484E-4,2.748893574E-3,-3.054326226E-4
1.022674420E0,-7.635815418E-4,1.527163084E-3,-3.054326226E-4
1.024913677E0,-7.635815418E-4,2.748893574E-3,-3.054326226E-4
1.027145916E0,-7.635815418E-4,2.748893574E-3,-1.527163084E-3
1.029378765E0,-7.635815418E-4,2.748893574E-3,9.162978968E-4
1.031621441E0,4.581489484E-4,3.054326226E-4,9.162978968E-4
1.033853863E0,-7.635815418E-4,1.527163084E-3,9.162978968E-4
1.036079937E0,4.581489484E-4,-2.138028387E-3,9.162978968E-4
1.038314495E0,4.581489484E-4,-9.162978968E-4,2.138028387E-3
1.040554547E0,-1.985311974E-3,-9.162978968E-4,2.138028387E-3
1.042805707E0,-7.635815418E-4,-2.138028387E-3,-3.054326226E-4
1.045038800E0,-7.635815418E-4,3.054326226E-4,9.162978968E-4
1.047265485E0,4.581489484E-4,1.527163084E-3,9.162978968E-4
1.049513226E0,2.901609987E-3,-2.138028387E-3,2.138028387E-3
1.051748578E0,1.679879380E-3,-2.138028387E-3,9.162978968E-4
1.053988202E0,4.581489484E-4,1.527163084E-3,4.581489135E-3
1.056217938E0,4.581489484E-4,3.054326226E-4,4.581489135E-3
1.058446148E0,1.679879380E-3,3.054326226E-4,2.138028387E-3
1.060695660E0,-7.635815418E-4,3.054326226E-4,9.162978968E-4
1.062931012E0,-7.635815418E-4,3.054326226E-4,3.359758761E-3
1.065170636E0,-7.635815418E-4,-9.162978968E-4,3.359758761E-3
1.067404828E0,-2.138028387E-3,-4.581489135E-3,8.246680722E-3
1.069640423E0,3.054326226E-4,-4.581489135E-3,1.069014147E-2
1.071876812E0,-9.162978968E-4,-2.138028387E-3,2.046398632E-2
1.074110150E0,-0.000000000E0,-7.024950348E-3,3.145955876E-2
1.076338177E0,1.527163113E-4,-3.359758761E-3,4.138612002E-2
1.078586285E0,1.221730490E-3,-4.581489135E-3,4.871650413E-2
1.080822796E0,1.221730490E-3,-3.359758761E-3,5.360342562E-2
1.083062360E0,1.221730490E-3,3.054326226E-4,5.971207842E-2
1.085296917E0,-2.443460980E-3,-2.138028387E-3,6.093380973E-2
1.087529095E0,1.221730490E-3,1.527163084E-3,6.337726861E-2
1.089756939E0,-0.000000000E0,3.054326226E-4,6.704246253E-2
1.092004925E0,1.221730490E-3,1.527163084E-3,6.948592514E-2
1.094241803E0,-2.443460980E-3,2.748893574E-3,6.948592514E-2
1.096481000E0,-1.221730490E-3,1.527163084E-3,7.559457421E-2
1.098714398E0,1.221730490E-3,2.748893574E-3,8.292495459E-2
1.100951214E0,-1.527163113E-4,3.054326226E-4,8.659014851E-2
1.103188519E0,1.069014193E-3,3.054326226E-4,9.025534242E-2
1.105423932E0,-1.374446787E-3,3.054326226E-4,9.514226019E-2
1.107657513E0,-3.054326226E-4,-9.162978968E-4,9.758572280E-2
1.109884808E0,-3.817907767E-3,5.192354787E-3,1.061378345E-1
1.112130352E0,-3.054326226E-4,1.527163084E-3,1.110247597E-1
1.114357708E0,-1.527163084E-3,2.748893574E-3,1.134682223E-1
1.116609296E0,-3.054326226E-4,2.748893574E-3,1.159116775E-1
1.118843426E0,9.162978968E-4,1.527163084E-3,1.197295859E-1
1.121083661E0,-4.581489484E-4,3.054326226E-4,1.195768714E-1
1.123315777E0,-1.679879380E-3,-9.162978968E-4,1.207986027E-1
1.125552228E0,9.162978968E-4,1.527163084E-3,1.209513173E-1
1.127788312E0,-3.054326226E-4,2.748893574E-3,1.197295859E-1
1.130025494E0,-2.748893574E-3,2.748893574E-3,1.220203340E-1
1.132262799E0,-1.679879380E-3,3.054326226E-4,1.207986027E-1
1.134498394E0,-1.527163084E-3,2.748893574E-3,1.183551401E-1
1.136734967E0,-1.679879380E-3,-9.162978968E-4,1.183551401E-1
1.138971966E0,9.162978968E-4,1.527163084E-3,1.159116775E-1
1.141207623E0,-3.054326226E-4,3.054326226E-4,1.171334088E-1
1.143444439E0,-1.679879380E-3,-9.162978968E-4,1.220203340E-1
1.145680524E0,-4.581489484E-4,-2.138028387E-3,1.207986027E-1
1.147917340E0,-1.679879380E-3,3.054326226E-4,1.207986027E-1
1.150153607E0,-2.901609987E-3,1.527163084E-3,1.232420653E-1
1.152390179E0,-3.970623948E-3,1.527163084E-3,1.195768714E-1
1.154626812E0,9.162978968E-4,1.527163084E-3,1.207986027E-1
1.156864300E0,-3.054326226E-4,3.970623948E-3,1.233947799E-1
1.159099408E0,-2.901609987E-3,2.748893574E-3,1.256855279E-1
1.161336041E0,7.635815418E-4,3.054326226E-4,1.307251602E-1
1.163572247E0,1.985311974E-3,-9.162978968E-4,1.343903542E-1
1.165808880E0,-4.581489484E-4,3.054326226E-4,1.392772794E-1
1.168045269E0,-6.108652451E-4,3.054326226E-4,1.429424733E-1
1.170282025E0,1.832595794E-3,-2.138028387E-3,1.466076523E-1
1.172518658E0,-1.832595794E-3,-9.162978968E-4,1.551597714E-1
1.174755963E0,-6.108652451E-4,3.054326226E-4,1.637118906E-1
1.176991192E0,-3.207042580E-3,1.527163084E-3,1.722639948E-1
1.179227582E0,-7.635815418E-4,3.054326226E-4,1.795943826E-1
1.181463910E0,1.679879380E-3,1.374446787E-3,1.893682331E-1
1.183700726E0,-2.138028387E-3,1.527163084E-3,1.991420686E-1
1.185934124E0,1.527163113E-4,-3.359758761E-3,2.101376504E-1
1.188161725E0,-2.443460980E-3,-4.581489135E-3,2.199114859E-1
1.190410504E0,-2.443460980E-3,3.054326226E-4,2.296853364E-1
1.192647809E0,1.221730490E-3,-2.138028387E-3,2.322815061E-1
1.194886150E0,-1.374446787E-3,-4.581489135E-3,2.419026345E-1
1.197119732E0,1.221730490E-3,1.374446787E-3,2.457205504E-1
1.199356061E0,-2.596177394E-3,-2.138028387E-3,2.506074607E-1
1.201593121E0,-1.374446787E-3,-9.162978968E-4,2.518292069E-1
1.203830182E0,-0.000000000E0,3.054326226E-4,2.542726696E-1
1.206062725E0,-0.000000000E0,3.054326226E-4,2.542726696E-1
1.208287030E0,-0.000000000E0,1.527163084E-3,2.542726696E-1
1.210526166E0,-1.221730490E-3,2.748893574E-3,2.579378486E-1
1.212775006E0,-5.039638374E-3,-9.162978968E-4,2.591595948E-1
1.215014751E0,-5.039638374E-3,3.054326226E-4,2.567161322E-1
1.217250896E0,-2.596177394E-3,-9.162978968E-4,2.530509233E-1
1.219484478E0,-2.596177394E-3,-9.162978968E-4,2.518292069E-1
1.221720929E0,-2.443460980E-3,1.527163084E-3,2.469422817E-1
1.223957379E0,1.527163113E-4,3.970623948E-3,2.383901626E-1
1.226191204E0,-1.069014193E-3,2.748893574E-3,2.273945808E-1
1.228419476E0,1.527163113E-4,3.054326226E-4,2.150245607E-1
1.230666852E0,-2.138028387E-3,1.527163084E-3,2.015855312E-1
1.232903363E0,4.581489484E-4,2.748893574E-3,1.881465018E-1
1.235142437E0,-6.108652451E-4,5.192354787E-3,1.783726513E-1
1.237376263E0,-6.108652451E-4,2.748893574E-3,1.661553532E-1
1.239612652E0,-3.054326167E-3,1.527163084E-3,1.551597714E-1
1.241849408E0,-3.054326167E-3,1.527163084E-3,1.441642046E-1
1.244082806E0,-4.581489484E-4,3.054326226E-4,1.319468915E-1
1.246311444E0,3.359758761E-3,3.817907767E-3,1.233947799E-1
1.248558880E0,2.138028387E-3,1.374446787E-3,1.134682223E-1
1.250795269E0,-3.054326226E-4,1.527163084E-3,1.049161032E-1
1.253031354E0,1.069014193E-3,6.261368748E-3,9.636399150E-2
1.255253399E0,1.069014193E-3,5.039638374E-3,9.147707373E-2
1.257492779E0,-0.000000000E0,3.970623948E-3,8.536841720E-2
1.259741253E0,-2.443460980E-3,2.748893574E-3,7.925976813E-2
1.261980572E0,-0.000000000E0,1.527163084E-3,7.192938030E-2
1.264218121E0,3.665191587E-3,1.374446787E-3,6.826419383E-2
1.266450482E0,1.374446787E-3,3.970623948E-3,6.459899992E-2
1.268687115E0,1.527163113E-4,3.970623948E-3,6.215553731E-2
1.270923138E0,-3.512475174E-3,7.635815535E-3,5.726861581E-2
1.273157452E0,-1.069014193E-3,2.748893574E-3,5.482515693E-2
1.275386273E0,-1.069014193E-3,4.123340361E-3,5.482515693E-2
1.277632916E0,-3.512475174E-3,2.901609987E-3,5.115996301E-2
1.279869793E0,-1.069014193E-3,4.123340361E-3,5.238169432E-2
1.282109783E0,-1.069014193E-3,6.566801574E-3,4.871650413E-2
1.284342389E0,1.374446787E-3,4.123340361E-3,4.627304152E-2
1.286578900E0,1.374446787E-3,4.123340361E-3,4.505131021E-2
1.288814923E0,-2.138028387E-3,6.566801574E-3,4.382958263E-2
1.291051800E0,-2.138028387E-3,5.345070735E-3,4.138612002E-2
1.293288128E0,1.527163113E-4,1.679879380E-3,4.016438872E-2
1.295524701E0,-9.162978968E-4,4.123340361E-3,3.894266114E-2
1.297761334E0,1.374446787E-3,-7.635815418E-4,3.894266114E-2
1.299998883E0,1.374446787E-3,1.679879380E-3,3.772092983E-2
1.302234234E0,3.054326226E-4,4.123340361E-3,3.772092983E-2
1.304470807E0,-1.069014193E-3,4.581489484E-4,3.527746722E-2
1.306706891E0,1.527163113E-4,4.581489484E-4,3.649919853E-2
1.308943951E0,1.374446787E-3,4.581489484E-4,3.772092983E-2
1.311180462E0,1.527163113E-4,-3.207042580E-3,4.016438872E-2
1.313417523E0,-1.069014193E-3,1.679879380E-3,4.138612002E-2
1.315653119E0,1.374446787E-3,1.679879380E-3,4.382958263E-2
1.317890606E0,1.527163113E-4,-7.635815418E-4,4.505131021E-2
1.320125592E0,1.374446787E-3,-7.635815418E-4,4.382958263E-2
1.322362652E0,-2.443460980E-3,-3.207042580E-3,4.627304152E-2
1.324598675E0,1.527163113E-4,-7.635815418E-4,4.749477282E-2
1.326835614E0,1.527163113E-4,4.581489484E-4,4.871650413E-2
1.329072064E0,-1.069014193E-3,4.581489484E-4,4.993823543E-2
1.331308392E0,1.527163113E-4,1.679879380E-3,5.238169432E-2
1.333545025E0,-0.000000000E0,-7.635815418E-4,5.971207842E-2
1.335782452E0,-1.221730490E-3,-7.635815418E-4,5.849034712E-2
1.338017682E0,-0.000000000E0,1.679879380E-3,6.215553731E-2
1.340255108E0,-0.000000000E0,-7.635815418E-4,6.948592514E-2
1.342492902E0,-2.596177394E-3,4.581489484E-4,7.315111160E-2
1.344727398E0,-2.596177394E-3,-1.985311974E-3,7.681630552E-2
1.346964642E0,-3.817907767E-3,2.901609987E-3,8.781187981E-2
1.349199688E0,1.069014193E-3,4.581489484E-4,9.392052889E-2
1.351437176E0,-3.054326226E-4,4.581489484E-4,1.000291854E-1
1.353674115E0,-1.527163084E-3,-7.635815418E-4,1.110247597E-1
1.355906231E0,9.162978968E-4,-7.635815418E-4,1.171334088E-1
1.358133099E0,-1.679879380E-3,4.581489484E-4,1.232420653E-1
1.360382367E0,-1.679879380E-3,4.581489484E-4,1.293507218E-1
1.362619244E0,-2.901609987E-3,-7.635815418E-4,1.330159009E-1
1.364858807E0,-1.679879380E-3,2.901609987E-3,1.404990107E-1
1.367092144E0,-4.581489484E-4,2.901609987E-3,1.453859210E-1
1.369328961E0,-6.108652451E-4,1.679879380E-3,1.478293836E-1
1.371566266E0,6.108652451E-4,-7.635815418E-4,1.527163088E-1
1.373801617E0,6.108652451E-4,1.679879380E-3,1.539380401E-1
1.376035137E0,-6.108652451E-4,4.581489484E-4,1.551597714E-1
1.378259137E0,-1.985311974E-3,-1.985311974E-3,1.600466967E-1
1.380498578E0,-1.985311974E-3,-1.985311974E-3,1.661553532E-1
1.382747357E0,4.581489484E-4,-7.635815418E-4,1.685988009E-1
1.384986980E0,-7.635815418E-4,4.581489484E-4,1.759291887E-1
1.387223919E0,-3.359758761E-3,4.581489484E-4,1.857030392E-1
1.389458111E0,-3.512475174E-3,-5.650503561E-3,1.930334121E-1
1.391693463E0,-2.290744567E-3,-5.650503561E-3,2.040289938E-1
1.393929913E0,-2.290744567E-3,-7.635815418E-4,2.174680233E-1
1.396165753E0,-2.443460980E-3,-7.635815418E-4,2.309070677E-1
1.398402630E0,-1.221730490E-3,4.581489484E-4,2.481640130E-1
1.400639203E0,-1.527163113E-4,2.901609987E-3,2.652682364E-1
1.402875958E0,-2.748893574E-3,-7.635815418E-4,2.811507285E-1
1.405112896E0,-1.527163084E-3,4.581489484E-4,2.970332205E-1
1.407346783E0,-2.901609987E-3,-7.635815418E-4,3.055853248E-1
1.409573590E0,-4.276056774E-3,4.581489484E-4,3.202461004E-1
1.411821759E0,-5.497787148E-3,4.581489484E-4,3.336851299E-1
1.414057965E0,-4.428773187E-3,1.679879380E-3,3.448334336E-1
1.416297955E0,-1.985311974E-3,2.901609987E-3,3.509420753E-1
1.418532269E0,-3.207042580E-3,2.901609987E-3,3.582724631E-1
1.420764630E0,-3.207042580E-3,2.901609987E-3,3.619376719E-1
1.422992291E0,-2.138028387E-3,1.679879380E-3,3.680463135E-1
1.425241437E0,-4.581489135E-3,-7.635815418E-4,3.778201640E-1
1.427474468E0,-9.162978968E-4,4.123340361E-3,3.839288056E-1
1.429706952E0,1.527163084E-3,1.527163084E-3,3.912591934E-1
1.431949750E0,-2.290744567E-3,4.581489484E-4,3.961461186E-1
1.434186627E0,-1.069014193E-3,1.679879380E-3,4.022547603E-1
1.436425335E0,-2.290744567E-3,2.901609987E-3,4.034765065E-1
1.438659466E0,-1.069014193E-3,2.901609987E-3,4.059199691E-1
1.440893047E0,-1.069014193E-3,4.581489484E-4,4.071416855E-1
1.443119060E0,-2.290744567E-3,4.581489484E-4,4.034765065E-1
1.445359417E0,-9.162978968E-4,5.192354787E-3,3.998112977E-1
1.447602398E0,-2.290744567E-3,2.901609987E-3,3.937026560E-1
1.449832929E0,-4.581489135E-3,1.679879380E-3,3.839288056E-1
1.452080792E0,-3.359758761E-3,4.123340361E-3,3.790418804E-1
1.454314801E0,-7.635815418E-4,5.192354787E-3,3.717114925E-1
1.456554302E0,-1.985311974E-3,1.679879380E-3,3.656028509E-1
1.458788189E0,-3.207042580E-3,2.901609987E-3,3.619376719E-1
1.461025433E0,-7.635815418E-4,-7.635815418E-4,3.546072841E-1
1.463260602E0,-7.635815418E-4,1.679879380E-3,3.472768962E-1
1.465497296E0,-4.276056774E-3,2.901609987E-3,3.436116874E-1
1.467730328E0,-1.832595794E-3,-7.635815418E-4,3.373503387E-1
1.469958844E0,-3.054326167E-3,-7.635815418E-4,3.349068761E-1
1.472202984E0,-1.832595794E-3,1.679879380E-3,3.300199509E-1
1.474428814E0,-5.497787148E-3,-7.635815418E-4,3.239113092E-1
1.476682660E0,-1.832595794E-3,4.581489484E-4,3.202461004E-1
1.478917279E0,-1.679879380E-3,2.901609987E-3,3.202461004E-1
1.481156048E0,-3.054326167E-3,4.581489484E-4,3.214678466E-1
1.483389264E0,-6.108652451E-4,4.581489484E-4,3.214678466E-1
1.485625287E0,-1.832595794E-3,4.581489484E-4,3.239113092E-1
1.487862469E0,-3.054326167E-3,1.679879380E-3,3.263547719E-1
1.490099652E0,-1.679879380E-3,4.123340361E-3,3.277291954E-1
1.492332989E0,-1.832595794E-3,1.679879380E-3,3.301726580E-1
1.494563580E0,-4.276056774E-3,2.901609987E-3,3.324634135E-1
1.496808820E0,-6.872233935E-3,-6.108652451E-4,3.385720551E-1
1.499044293E0,-3.207042580E-3,-7.635815418E-4,3.436116874E-1
1.501283123E0,-4.428773187E-3,2.901609987E-3,3.497203588E-1
1.503517132E0,-3.207042580E-3,1.679879380E-3,3.546072841E-1
1.505754010E0,-3.207042580E-3,4.581489484E-4,3.619376719E-1
1.507990216E0,-7.635815418E-4,5.192354787E-3,3.656028509E-1
1.510222394E0,-3.207042580E-3,2.901609987E-3,3.680463135E-1
1.512446637E0,-9.162978968E-4,-1.985311974E-3,3.729332387E-1
1.514700970E0,-9.162978968E-4,4.581489484E-4,3.753767014E-1
1.516936139E0,-2.138028387E-3,2.901609987E-3,3.790418804E-1
1.519176861E0,-9.162978968E-4,2.901609987E-3,3.790418804E-1
1.521405804E0,-3.359758761E-3,1.679879380E-3,3.753767014E-1
1.523634137E0,-2.138028387E-3,1.679879380E-3,3.741549551E-1
1.525879132E0,-9.162978968E-4,4.581489484E-4,3.680463135E-1
1.528106610E0,-3.359758761E-3,-1.985311974E-3,3.594942093E-1
1.530358502E0,-3.207042580E-3,4.581489484E-4,3.533855379E-1
1.532589947E0,-3.207042580E-3,-7.635815418E-4,3.484986126E-1
1.534819562E0,-1.985311974E-3,-7.635815418E-4,3.436116874E-1
1.537061810E0,-6.872233935E-3,4.581489484E-4,3.373503387E-1
1.539284466E0,-4.276056774E-3,1.679879380E-3,3.361285925E-1
1.541522014E0,-1.832595794E-3,1.679879380E-3,3.338378668E-1
1.543773968E0,-4.276056774E-3,1.679879380E-3,3.287982047E-1
1.546010541E0,-1.832595794E-3,1.679879380E-3,3.251330256E-1
1.548240033E0,-3.054326167E-3,-7.635815418E-4,3.214678466E-1
1.550484417E0,-4.123340361E-3,2.901609987E-3,3.153591752E-1
1.552719830E0,-6.566801574E-3,2.901609987E-3,3.129157126E-1
1.554959576E0,-2.901609987E-3,1.679879380E-3,3.092505336E-1
1.557192731E0,-1.679879380E-3,-7.635815418E-4,3.080287874E-1
1.559429791E0,-2.901609987E-3,4.581489484E-4,3.019201458E-1
1.561666791E0,-2.901609987E-3,4.581489484E-4,2.982549667E-1
1.563902386E0,-2.748893574E-3,2.901609987E-3,2.909245789E-1
1.566136028E0,-1.527163084E-3,1.679879380E-3,2.884811163E-1
1.568364422E0,-1.527163113E-4,2.901609987E-3,2.811507285E-1
1.570612164E0,-1.374446787E-3,2.901609987E-3,2.787072659E-1
1.572848492E0,1.069014193E-3,1.527163084E-3,2.750420868E-1
1.575087444E0,-1.374446787E-3,4.123340361E-3,2.713768780E-1
1.577321026E0,-3.817907767E-3,1.679879380E-3,2.652682364E-1
1.579557660E0,-1.527163113E-4,2.901609987E-3,2.664899528E-1
1.581794232E0,-2.596177394E-3,-7.635815418E-4,2.677116990E-1
1.584030926E0,-3.970623948E-3,-7.635815418E-4,2.713768780E-1
1.586268414E0,-2.748893574E-3,-7.635815418E-4,2.713768780E-1
1.588503705E0,-3.817907767E-3,1.679879380E-3,2.738203406E-1
1.590740033E0,-1.527163084E-3,-1.985311974E-3,2.762638032E-1
1.592972577E0,-2.748893574E-3,-7.635815418E-4,2.787072659E-1
1.595198589E0,-2.596177394E-3,4.123340361E-3,2.811507285E-1
1.597447918E0,-2.748893574E-3,2.901609987E-3,2.835941911E-1
1.599686383E0,-3.054326226E-4,2.901609987E-3,2.897028327E-1
1.601926190E0,9.162978968E-4,3.970623948E-3,2.909245789E-1
1.604160382E0,-1.527163084E-3,4.581489484E-4,2.958115041E-1
1.606395306E0,-4.581489484E-4,-7.635815418E-4,3.006984293E-1
1.608632184E0,-2.901609987E-3,4.581489484E-4,3.043636084E-1
1.610868329E0,-1.832595794E-3,-3.207042580E-3,3.116939962E-1
1.613105389E0,-1.679879380E-3,1.679879380E-3,3.178026378E-1
1.615341595E0,-3.054326167E-3,-3.207042580E-3,3.251330256E-1
1.617577862E0,-6.108652451E-4,4.581489484E-4,3.289509416E-1
1.619814251E0,6.108652451E-4,-7.635815418E-4,3.375030458E-1
1.622051739E0,-4.428773187E-3,4.581489484E-4,3.434589803E-1
1.624286175E0,-4.428773187E-3,-7.635815418E-4,3.509420753E-1
1.626523846E0,-5.803219974E-3,-7.635815418E-4,3.594942093E-1
1.628760052E0,-1.985311974E-3,4.123340361E-3,3.680463135E-1
1.630997418E0,-2.138028387E-3,1.679879380E-3,3.778201640E-1
1.633234295E0,-9.162978968E-4,4.123340361E-3,3.827070892E-1
1.635470074E0,-9.162978968E-4,1.679879380E-3,3.888157308E-1
1.637706646E0,3.054326226E-4,2.748893574E-3,3.924809098E-1
1.639943646E0,-3.512475174E-3,4.581489484E-4,3.937026560E-1
1.642178937E0,-2.290744567E-3,4.581489484E-4,3.985895813E-1
1.644415509E0,-2.290744567E-3,4.581489484E-4,4.046982229E-1
1.646651715E0,-1.069014193E-3,4.581489484E-4,4.083634019E-1
1.648889019E0,-3.665191587E-3,1.679879380E-3,4.132503271E-1
1.651125164E0,-3.665191587E-3,4.123340361E-3,4.205807149E-1
1.653361920E0,-0.000000000E0,2.748893574E-3,4.280638099E-1
1.655598187E0,-2.443460980E-3,4.123340361E-3,4.353941977E-1
1.657835736E0,-3.817907767E-3,1.679879380E-3,4.427245855E-1
1.660070782E0,-2.596177394E-3,1.679879380E-3,4.463897645E-1
1.662307477E0,-3.970623948E-3,4.581489484E-4,4.512766898E-1
1.664543744E0,-3.970623948E-3,-7.635815418E-4,4.561636150E-1
1.666780621E0,-3.970623948E-3,1.679879380E-3,4.586070776E-1
1.669016888E0,-3.970623948E-3,4.581489484E-4,4.622722864E-1
1.671253216E0,-3.970623948E-3,-1.985311974E-3,4.622722864E-1
1.673490094E0,-2.748893574E-3,-7.635815418E-4,4.622722864E-1
1.675725385E0,-6.414085161E-3,1.679879380E-3,4.610505402E-1
1.677953900E0,-5.192354787E-3,-3.207042580E-3,4.573853612E-1
1.680199017E0,-3.970623948E-3,-1.985311974E-3,4.549418986E-1
1.682435284E0,-5.192354787E-3,-3.207042580E-3,4.523457289E-1
1.684674420E0,-5.192354787E-3,-3.207042580E-3,4.474588037E-1
1.686908856E0,-1.374446787E-3,-1.985311974E-3,4.439463317E-1
1.689145367E0,-3.817907767E-3,4.581489484E-4,4.427245855E-1
1.691382000E0,-3.817907767E-3,-3.207042580E-3,4.389066696E-1
1.693619488E0,-5.039638374E-3,-1.985311974E-3,4.376849532E-1
1.695856427E0,-2.596177394E-3,-3.207042580E-3,4.364632070E-1
1.698097699E0,-2.596177394E-3,-1.985311974E-3,4.327980280E-1
1.700327191E0,-3.817907767E-3,-3.207042580E-3,4.327980280E-1
1.702564495E0,-6.261368748E-3,-3.207042580E-3,4.340197444E-1
1.704799908E0,-7.483099122E-3,-1.832595794E-3,4.340197444E-1
1.707036908E0,-3.817907767E-3,-7.635815418E-4,4.364632070E-1
1.709273541E0,-2.596177394E-3,1.679879380E-3,4.378376603E-1
1.711511029E0,-2.596177394E-3,-3.207042580E-3,4.364632070E-1
1.713746502E0,-5.039638374E-3,1.679879380E-3,4.401284158E-1
1.715980328E0,-3.817907767E-3,-7.635815418E-4,4.425718784E-1
1.718207318E0,-3.970623948E-3,-4.428773187E-3,4.450153410E-1
1.720456097E0,-6.414085161E-3,-4.276056774E-3,4.474588037E-1
1.722692120E0,-3.970623948E-3,-7.635815418E-4,4.500549734E-1
1.724930828E0,-2.596177394E-3,-7.635815418E-4,4.488332272E-1
1.727161969E0,-1.374446787E-3,-7.635815418E-4,4.488332272E-1
1.729403180E0,-1.374446787E-3,2.901609987E-3,4.488332272E-1
1.731638348E0,-3.817907767E-3,4.581489484E-4,4.488332272E-1
1.733875957E0,-3.817907767E-3,4.581489484E-4,4.463897645E-1
1.736110821E0,-6.414085161E-3,-1.985311974E-3,4.474588037E-1
1.738347760E0,-2.748893574E-3,-7.635815418E-4,4.512766898E-1
1.740584271E0,-3.970623948E-3,-1.985311974E-3,4.549418986E-1
1.742818340E0,-4.123340361E-3,-5.650503561E-3,4.572326243E-1
1.745047222E0,-2.748893574E-3,-1.985311974E-3,4.586070776E-1
1.747294781E0,-3.970623948E-3,-7.635815418E-4,4.586070776E-1
1.749530316E0,-1.527163084E-3,-5.650503561E-3,4.549418986E-1
1.751766339E0,-2.748893574E-3,-5.650503561E-3,4.549418986E-1
1.753988324E0,-5.192354787E-3,-4.428773187E-3,4.572326243E-1
1.756227826E0,-6.414085161E-3,-3.207042580E-3,4.596760869E-1
1.758476178E0,-2.748893574E-3,2.901609987E-3,4.634940028E-1
1.760715618E0,-5.192354787E-3,4.581489484E-4,4.696026444E-1
1.762952252E0,-1.679879380E-3,-7.635815418E-4,4.744895697E-1
1.765186566E0,-4.123340361E-3,-1.985311974E-3,4.793764949E-1
1.767421978E0,-4.123340361E-3,1.679879380E-3,4.854851663E-1
1.769658795E0,-2.901609987E-3,1.679879380E-3,4.867068827E-1
1.771891888E0,-5.345070735E-3,2.901609987E-3,4.891503453E-1
1.774119976E0,-2.901609987E-3,4.123340361E-3,4.915938079E-1
1.776368878E0,-4.276056774E-3,4.581489484E-4,4.952589869E-1
1.778604352E0,-3.054326167E-3,-1.985311974E-3,4.989241958E-1
1.780844342E0,-3.054326167E-3,1.679879380E-3,5.001459122E-1
1.783078168E0,-1.679879380E-3,5.192354787E-3,5.050328374E-1
1.785313885E0,-3.054326167E-3,1.679879380E-3,5.062545538E-1
1.787547772E0,-6.108652451E-4,2.748893574E-3,5.074763298E-1
1.789775494E0,-1.679879380E-3,3.970623948E-3,5.062545538E-1
1.792023541E0,-1.679879380E-3,3.970623948E-3,5.050328374E-1
1.794259808E0,-1.679879380E-3,6.414085161E-3,4.952589869E-1
1.796499126E0,-3.970623948E-3,6.566801574E-3,4.891503453E-1
1.798732769E0,-1.679879380E-3,2.901609987E-3,4.830417037E-1
1.800970501E0,-3.970623948E-3,4.123340361E-3,4.720461071E-1
1.803205609E0,-5.192354787E-3,5.345070735E-3,4.647157490E-1
1.805442242E0,-2.596177394E-3,6.566801574E-3,4.598288238E-1
1.807675274E0,-1.374446787E-3,3.970623948E-3,4.537201524E-1
1.809903363E0,-3.817907767E-3,5.345070735E-3,4.488332272E-1
1.812151471E0,-1.221730490E-3,7.635815535E-3,4.427245855E-1
1.814388348E0,-1.221730490E-3,5.192354787E-3,4.378376603E-1
1.816627972E0,2.443460980E-3,5.192354787E-3,4.378376603E-1
1.818861920E0,-0.000000000E0,3.970623948E-3,4.353941977E-1
1.821097455E0,-2.443460980E-3,6.566801574E-3,4.280638099E-1
1.823333966E0,-1.069014193E-3,7.635815535E-3,4.243986309E-1
1.825569256E0,-1.221730490E-3,2.901609987E-3,4.231768847E-1
1.827803265E0,-2.443460980E-3,1.679879380E-3,4.205807149E-1
1.830043316E0,-1.221730490E-3,2.901609987E-3,4.182899892E-1
1.832280133E0,-1.069014193E-3,5.192354787E-3,4.170682430E-1
1.834517621E0,-1.069014193E-3,6.414085161E-3,4.182899892E-1
1.836754010E0,-1.069014193E-3,6.414085161E-3,4.195117056E-1
1.838989300E0,1.527163113E-4,5.192354787E-3,4.207334518E-1
1.841225873E0,-1.069014193E-3,5.192354787E-3,4.231768847E-1
1.843462018E0,-1.221730490E-3,4.581489484E-4,4.268420935E-1
1.845699322E0,-2.443460980E-3,1.679879380E-3,4.292855561E-1
1.847936383E0,-3.665191587E-3,6.566801574E-3,4.366159439E-1
1.850171978E0,-1.527163113E-4,2.748893574E-3,4.427245855E-1
1.852408490E0,-1.374446787E-3,5.192354787E-3,4.476115108E-1
1.854645794E0,1.221730490E-3,8.857546374E-3,4.537201524E-1
1.856882123E0,-1.374446787E-3,8.857546374E-3,4.610505402E-1
1.859117718E0,-2.748893574E-3,5.345070735E-3,4.708243906E-1
1.861353802E0,-2.748893574E-3,5.345070735E-3,4.769330323E-1
1.863590436E0,-3.970623948E-3,5.345070735E-3,4.818199575E-1
1.865827252E0,-3.970623948E-3,6.566801574E-3,4.891503453E-1
1.868063824E0,-2.748893574E-3,6.566801574E-3,4.903720617E-1
1.870300396E0,-2.901609987E-3,5.345070735E-3,4.940372705E-1
1.872537640E0,-2.901609987E-3,4.123340361E-3,4.977024496E-1
1.874772809E0,-1.679879380E-3,7.635815535E-3,5.027421117E-1
1.877008893E0,-3.054326167E-3,4.123340361E-3,5.074763298E-1
1.879245953E0,-1.832595794E-3,5.192354787E-3,5.137376785E-1
1.881482708E0,-3.054326167E-3,6.566801574E-3,5.198463202E-1
1.883719097E0,-5.497787148E-3,7.788531948E-3,5.271766782E-1
1.885952923E0,-4.428773187E-3,4.123340361E-3,5.320636034E-1
1.888180462E0,-1.832595794E-3,6.414085161E-3,5.369505286E-1
1.890429547E0,-1.985311974E-3,6.414085161E-3,5.455026627E-1
1.892661785E0,4.581489484E-4,6.414085161E-3,5.516113043E-1
1.894892438E0,-7.635815418E-4,6.414085161E-3,5.564982295E-1
1.897137738E0,-4.581489135E-3,6.566801574E-3,5.638286471E-1
1.899374371E0,-4.581489135E-3,5.345070735E-3,5.674937963E-1
1.901613934E0,-2.138028387E-3,1.007927675E-2,5.723807216E-1
1.903844403E0,-2.138028387E-3,1.007927675E-2,5.784893632E-1
1.906068951E0,-1.069014193E-3,7.635815535E-3,5.870414972E-1
1.908309674E0,1.527163084E-3,1.252273750E-2,5.945246220E-1
1.910556988E0,-4.734205548E-3,9.010262787E-3,6.004805565E-1
1.912796551E0,-3.512475174E-3,1.130100712E-2,6.067419052E-1
1.915032329E0,-0.000000000E0,6.414085161E-3,6.116288304E-1
1.917266644E0,-2.443460980E-3,6.414085161E-3,6.165157557E-1
1.919503705E0,-3.665191587E-3,7.635815535E-3,6.189591885E-1
1.921736553E0,-2.443460980E-3,7.635815535E-3,6.250678897E-1
1.923964581E0,-2.443460980E-3,8.857546374E-3,6.262896061E-1
1.926212750E0,-2.443460980E-3,8.857546374E-3,6.311765313E-1
1.928448773E0,-5.039638374E-3,9.010262787E-3,6.336199641E-1
1.930687908E0,-3.817907767E-3,1.007927675E-2,6.372851729E-1
1.932921246E0,-2.596177394E-3,1.007927675E-2,6.409503818E-1
1.935158001E0,-3.817907767E-3,8.857546374E-3,6.409503818E-1
1.937394635E0,-2.596177394E-3,7.635815535E-3,6.397286057E-1
1.939631207E0,-2.443460980E-3,1.007927675E-2,6.348416805E-1
1.941867779E0,-3.665191587E-3,1.007927675E-2,6.311765313E-1
1.944105084E0,-1.221730490E-3,1.007927675E-2,6.275113225E-1
1.946340680E0,1.527163113E-4,1.130100712E-2,6.177374721E-1
1.948577252E0,-3.512475174E-3,1.130100712E-2,6.091853380E-1
1.950813336E0,-2.138028387E-3,1.252273750E-2,5.994115472E-1
1.953050030E0,-2.138028387E-3,1.130100712E-2,5.894849896E-1
1.955286175E0,-3.359758761E-3,8.857546374E-3,5.809328556E-1
1.957522992E0,-3.359758761E-3,1.007927675E-2,5.736024380E-1
1.959756634E0,-3.207042580E-3,1.252273750E-2,5.662720799E-1
1.961985211E0,-2.138028387E-3,6.414085161E-3,5.601634383E-1
1.964232281E0,-3.207042580E-3,7.635815535E-3,5.564982295E-1
1.966469098E0,-3.207042580E-3,7.635815535E-3,5.528330207E-1
1.968708050E0,-5.650503561E-3,7.788531948E-3,5.528330207E-1
1.970941754E0,-5.650503561E-3,6.566801574E-3,5.540547967E-1
1.973178265E0,-3.207042580E-3,8.857546374E-3,5.589417219E-1
1.975414837E0,-4.581489135E-3,6.566801574E-3,5.601634383E-1
1.977651471E0,-4.581489135E-3,2.901609987E-3,5.626068711E-1
1.979888775E0,-4.581489135E-3,5.345070735E-3,5.626068711E-1
1.982124371E0,-3.207042580E-3,7.635815535E-3,5.601634383E-1
1.984360882E0,-7.635815418E-4,6.414085161E-3,5.601634383E-1
1.986596783E0,-1.985311974E-3,7.635815535E-3,5.613851547E-1
1.988830853E0,-2.138028387E-3,6.414085161E-3,5.601634383E-1
1.991055340E0,-5.650503561E-3,7.788531948E-3,5.552765131E-1
1.993294537E0,-2.138028387E-3,2.901609987E-3,5.540547967E-1
1.995543316E0,-3.207042580E-3,5.345070735E-3,5.516113043E-1
1.997783734E0,-1.985311974E-3,6.414085161E-3,5.528330207E-1
2.000019025E0,-3.207042580E-3,7.635815535E-3,5.528330207E-1
2.002252728E0,-4.581489135E-3,1.679879380E-3,5.516113043E-1
2.004488507E0,-1.985311974E-3,3.970623948E-3,5.503895879E-1
2.006725445E0,-5.650503561E-3,5.345070735E-3,5.516113043E-1
2.008961957E0,-4.428773187E-3,6.566801574E-3,5.503895879E-1
2.011198590E0,-4.428773187E-3,6.566801574E-3,5.467243791E-1
2.013435223E0,-4.428773187E-3,4.123340361E-3,5.442809463E-1
2.015672650E0,-4.428773187E-3,2.901609987E-3,5.393940210E-1
2.017907818E0,-3.207042580E-3,2.901609987E-3,5.381723046E-1
2.020144635E0,-4.428773187E-3,4.123340361E-3,5.369505286E-1
2.022380597E0,-5.650503561E-3,6.566801574E-3,5.369505286E-1
2.024617230E0,-3.207042580E-3,5.345070735E-3,5.381723046E-1
2.026851605E0,-3.207042580E-3,4.123340361E-3,5.393940210E-1
2.029079571E0,-5.650503561E-3,7.788531948E-3,5.393940210E-1
2.031312115E0,-3.207042580E-3,4.123340361E-3,5.430592299E-1
2.033549725E0,-7.635815418E-4,3.970623948E-3,5.442809463E-1
2.035790142E0,-3.207042580E-3,7.635815535E-3,5.491678715E-1
2.038039471E0,-4.428773187E-3,7.788531948E-3,5.467243791E-1
2.040275494E0,-4.428773187E-3,7.788531948E-3,5.503895879E-1
2.042512189E0,-5.650503561E-3,1.023199316E-2,5.491678715E-1
2.044745404E0,-4.276056774E-3,1.130100712E-2,5.479460955E-1
2.046979290E0,-1.832595794E-3,1.130100712E-2,5.455026627E-1
2.049207135E0,-6.108652451E-4,1.007927675E-2,5.357288122E-1
2.051456402E0,-4.276056774E-3,9.010262787E-3,5.271766782E-1
2.053691449E0,-5.345070735E-3,7.788531948E-3,5.148066878E-1
2.055928387E0,-2.901609987E-3,6.566801574E-3,5.074763298E-1
2.058153851E0,-1.527163084E-3,1.007927675E-2,4.952589869E-1
2.060401471E0,-3.970623948E-3,6.566801574E-3,4.842634201E-1
2.062638470E0,-1.374446787E-3,7.635815535E-3,4.720461071E-1
2.064876446E0,-1.374446787E-3,8.857546374E-3,4.647157490E-1
2.067110638E0,-2.596177394E-3,8.857546374E-3,4.586070776E-1
2.069347699E0,-2.443460980E-3,8.857546374E-3,4.524984360E-1
2.071580364E0,-3.665191587E-3,9.010262787E-3,4.451680481E-1
2.073807965E0,-1.221730490E-3,5.192354787E-3,4.390594065E-1
2.076053509E0,-1.221730490E-3,7.635815535E-3,4.329507351E-1
2.078282147E0,-3.665191587E-3,6.566801574E-3,4.305072725E-1
2.080532635E0,-2.443460980E-3,4.123340361E-3,4.256203473E-1
2.082765912E0,-3.512475174E-3,6.566801574E-3,4.243986309E-1
2.085005292E0,-2.290744567E-3,6.566801574E-3,4.231768847E-1
2.087240033E0,-1.069014193E-3,6.414085161E-3,4.231768847E-1
2.089475384E0,-3.512475174E-3,7.788531948E-3,4.231768847E-1
2.091711712E0,-4.734205548E-3,9.010262787E-3,4.268420935E-1
2.093947797E0,-0.000000000E0,5.192354787E-3,4.256203473E-1
2.096184796E0,-1.221730490E-3,6.414085161E-3,4.305072725E-1
2.098421002E0,-3.665191587E-3,5.345070735E-3,4.317290187E-1
2.100657818E0,-1.221730490E-3,7.635815535E-3,4.378376603E-1
2.102894390E0,-0.000000000E0,6.414085161E-3,4.427245855E-1
2.105131939E0,-1.221730490E-3,6.414085161E-3,4.488332272E-1
2.107365887E0,-3.817907767E-3,9.010262787E-3,4.586070776E-1
2.109598187E0,-1.527163084E-3,5.192354787E-3,4.683809280E-1
2.111832928E0,-3.970623948E-3,4.123340361E-3,4.769330323E-1
2.114065533E0,-1.527163084E-3,6.414085161E-3,4.854851663E-1
2.116314129E0,-4.123340361E-3,6.566801574E-3,4.964807332E-1
2.118550396E0,-4.123340361E-3,7.788531948E-3,5.062545538E-1
2.120785992E0,-3.054326167E-3,6.566801574E-3,5.198463202E-1
2.123011578E0,-3.207042580E-3,5.345070735E-3,5.332853794E-1
2.125259198E0,-1.985311974E-3,7.635815535E-3,5.455026627E-1
2.127491986E0,-2.138028387E-3,5.192354787E-3,5.613851547E-1
2.129719829E0,-3.359758761E-3,5.345070735E-3,5.748242140E-1
2.131968548E0,-3.359758761E-3,7.635815535E-3,5.833762884E-1
2.134205853E0,-4.734205548E-3,1.023199316E-2,5.931501389E-1
2.136442181E0,-5.955935922E-3,7.788531948E-3,5.968153477E-1
2.138663128E0,-6.108652335E-3,5.345070735E-3,6.004805565E-1
2.140900189E0,-2.290744567E-3,8.857546374E-3,6.004805565E-1
2.143138958E0,-3.512475174E-3,7.635815535E-3,6.029239893E-1
2.145390241E0,-2.290744567E-3,6.414085161E-3,5.992587805E-1
2.147623639E0,-2.290744567E-3,7.635815535E-3,5.955936313E-1
2.149852399E0,-1.069014193E-3,8.857546374E-3,5.931501389E-1
2.152096783E0,-2.290744567E-3,3.970623948E-3,5.870414972E-1
2.154333355E0,3.054326226E-4,5.192354787E-3,5.784893632E-1
2.156572613E0,-4.581489135E-3,5.345070735E-3,5.711590052E-1
2.158807171E0,-2.138028387E-3,4.581489484E-4,5.601634383E-1
2.161042523E0,-3.207042580E-3,5.345070735E-3,5.491678715E-1
2.163279095E0,-6.108652451E-4,7.635815535E-3,5.369505286E-1
2.165515240E0,-1.832595794E-3,3.970623948E-3,5.271766782E-1
2.167752301E0,-3.054326167E-3,4.123340361E-3,5.172501206E-1
2.169988629E0,-3.054326167E-3,4.123340361E-3,5.123631954E-1
2.172225262E0,-2.901609987E-3,8.857546374E-3,5.149593949E-1
2.174459209E0,-4.123340361E-3,7.788531948E-3,5.123631954E-1
2.176688031E0,-4.581489484E-4,7.635815535E-3,5.161811113E-1
2.178934369E0,-1.679879380E-3,7.635815535E-3,5.186246037E-1
2.181170941E0,-4.276056774E-3,4.123340361E-3,5.258022547E-1
2.183410076E0,-4.428773187E-3,5.345070735E-3,5.320636034E-1
2.185644146E0,-1.985311974E-3,6.414085161E-3,5.381723046E-1
2.187880475E0,4.581489484E-4,5.192354787E-3,5.442809463E-1
2.190117047E0,-3.359758761E-3,4.123340361E-3,5.516113043E-1
2.192353863E0,-7.024950348E-3,1.679879380E-3,5.540547967E-1
2.194591107E0,-3.359758761E-3,2.901609987E-3,5.589417219E-1
2.196826214E0,-2.138028387E-3,6.414085161E-3,5.601634383E-1
2.199062787E0,-9.162978968E-4,3.970623948E-3,5.650503635E-1
2.201299054E0,-3.359758761E-3,2.901609987E-3,5.674937963E-1
2.203533062E0,-4.581489135E-3,6.566801574E-3,5.711590052E-1
2.205761517E0,-3.512475174E-3,4.123340361E-3,5.772676468E-1
2.208008587E0,-2.290744567E-3,2.901609987E-3,5.797111392E-1
2.210245526E0,-4.734205548E-3,2.901609987E-3,5.797111392E-1
2.212485638E0,-2.290744567E-3,3.970623948E-3,5.809328556E-1
2.214718121E0,-2.290744567E-3,3.970623948E-3,5.845980644E-1
2.216954632E0,1.527163113E-4,6.414085161E-3,5.870414972E-1
2.219190655E0,-6.108652335E-3,2.901609987E-3,5.894849896E-1
2.221427533E0,-3.512475174E-3,5.345070735E-3,5.907067060E-1
2.223663922E0,-1.069014193E-3,5.192354787E-3,5.894849896E-1
2.225899700E0,-3.512475174E-3,2.901609987E-3,5.894849896E-1
2.228133221E0,-1.069014193E-3,3.970623948E-3,5.907067060E-1
2.230374859E0,-1.069014193E-3,2.748893574E-3,5.907067060E-1
2.232609906E0,1.374446787E-3,5.192354787E-3,5.882632136E-1
2.234847515E0,-2.290744567E-3,5.192354787E-3,5.894849896E-1
2.237082501E0,-2.290744567E-3,3.970623948E-3,5.919284225E-1
2.239319439E0,-1.069014193E-3,5.192354787E-3,5.907067060E-1
2.241555951E0,-2.290744567E-3,3.970623948E-3,5.907067060E-1
2.243792340E0,-2.290744567E-3,2.901609987E-3,5.870414972E-1
2.246026165E0,-4.734205548E-3,2.901609987E-3,5.858197808E-1
2.248254498E0,-4.734205548E-3,4.123340361E-3,5.845980644E-1
2.250499188E0,-2.290744567E-3,3.970623948E-3,5.858197808E-1
2.252723980E0,-3.512475174E-3,1.679879380E-3,5.845980644E-1
2.254965984E0,-4.734205548E-3,5.345070735E-3,5.845980644E-1
2.257210674E0,-3.512475174E-3,4.123340361E-3,5.870414972E-1
2.259442975E0,-7.330383174E-3,1.679879380E-3,5.894849896E-1
2.261668988E0,-2.443460980E-3,1.679879380E-3,5.919284225E-1
2.263920941E0,-2.290744567E-3,2.901609987E-3,5.894849896E-1
2.266156354E0,-4.734205548E-3,4.123340361E-3,5.931501389E-1
2.268387432E0,-3.665191587E-3,2.901609987E-3,5.955936313E-1
2.270630230E0,-3.512475174E-3,5.345070735E-3,5.980370641E-1
2.272866498E0,-2.443460980E-3,2.901609987E-3,5.955936313E-1
2.275106061E0,-3.665191587E-3,4.123340361E-3,5.980370641E-1
2.277340680E0,-3.665191587E-3,1.679879380E-3,5.992587805E-1
2.279576214E0,-8.704829961E-3,4.581489484E-4,6.029239893E-1
2.281812847E0,-4.886921961E-3,4.581489484E-4,6.041457057E-1
2.284049847E0,-4.886921961E-3,1.679879380E-3,6.053674817E-1
2.286285504E0,-2.443460980E-3,3.970623948E-3,6.041457057E-1
2.288519329E0,-3.512475174E-3,7.635815535E-3,5.992587805E-1
2.290746381E0,-1.069014193E-3,5.192354787E-3,5.943718553E-1
2.292994977E0,-2.290744567E-3,2.901609987E-3,5.894849896E-1
2.295231488E0,-4.581489135E-3,9.010262787E-3,5.797111392E-1
2.297471050E0,-5.803219974E-3,6.566801574E-3,5.687155724E-1
2.299704754E0,-4.428773187E-3,7.788531948E-3,5.564982295E-1
2.301942181E0,-4.428773187E-3,9.010262787E-3,5.467243791E-1
2.304177289E0,-4.276056774E-3,5.345070735E-3,5.308418870E-1
2.306413922E0,-6.108652451E-4,2.748893574E-3,5.149593949E-1
2.308650189E0,-3.054326167E-3,1.679879380E-3,5.001459122E-1
2.310887066E0,-2.901609987E-3,2.901609987E-3,4.879286289E-1
2.313123394E0,-2.748893574E-3,1.679879380E-3,4.769330323E-1
2.315359906E0,-1.527163084E-3,2.901609987E-3,4.708243906E-1
2.317596539E0,-1.679879380E-3,-3.207042580E-3,4.659374654E-1
2.319834027E0,-3.970623948E-3,-7.635815418E-4,4.622722864E-1
2.322069073E0,-3.970623948E-3,-7.635815418E-4,4.634940028E-1
2.324302532E0,-1.527163084E-3,-7.635815418E-4,4.671591818E-1
2.326530011E0,-2.901609987E-3,-4.428773187E-3,4.696026444E-1
2.328778668E0,-1.679879380E-3,-1.985311974E-3,4.769330323E-1
2.331015301E0,-2.901609987E-3,-3.207042580E-3,4.818199575E-1
2.333254680E0,-1.679879380E-3,-3.207042580E-3,4.867068827E-1
2.335488201E0,-1.679879380E-3,1.679879380E-3,4.964807332E-1
2.337725934E0,-4.581489484E-4,1.527163084E-3,5.025894046E-1
2.339961285E0,-4.428773187E-3,-7.635815418E-4,5.160284042E-1
2.342197857E0,-3.207042580E-3,4.581489484E-4,5.270239711E-1
2.344433636E0,-7.635815418E-4,3.054326226E-4,5.345070958E-1
2.346671002E0,4.581489484E-4,2.748893574E-3,5.442809463E-1
2.348908307E0,-2.138028387E-3,4.581489484E-4,5.552765131E-1
2.351143902E0,-3.512475174E-3,1.679879380E-3,5.662720799E-1
2.353378216E0,-3.512475174E-3,-7.635815418E-4,5.772676468E-1
2.355609357E0,-0.000000000E0,-3.207042580E-3,5.858197808E-1
2.357852826E0,-1.221730490E-3,1.527163084E-3,5.931501389E-1
2.360089642E0,-1.221730490E-3,1.527163084E-3,5.992587805E-1
2.362327435E0,-1.221730490E-3,3.054326226E-4,6.053674817E-1
2.364562420E0,-1.374446787E-3,3.054326226E-4,6.102544069E-1
2.366799176E0,-2.596177394E-3,4.581489484E-4,6.151412725E-1
2.369035748E0,-3.817907767E-3,1.679879380E-3,6.163630486E-1
2.371272137E0,-3.817907767E-3,1.679879380E-3,6.188064814E-1
2.373509503E0,-2.596177394E-3,4.581489484E-4,6.224716902E-1
2.375744671E0,-1.527163113E-4,3.054326226E-4,6.201809645E-1
2.377981488E0,-1.374446787E-3,2.748893574E-3,6.177374721E-1
2.380217328E0,-3.665191587E-3,2.901609987E-3,6.102544069E-1
2.382454449E0,-4.886921961E-3,2.901609987E-3,6.041457057E-1
2.384690716E0,-3.665191587E-3,2.901609987E-3,5.992587805E-1
2.386927350E0,-3.512475174E-3,2.901609987E-3,5.907067060E-1
2.389163922E0,-1.069014193E-3,3.054326226E-4,5.833762884E-1
2.391401410E0,-3.512475174E-3,2.901609987E-3,5.748242140E-1
2.393636578E0,-9.162978968E-4,3.970623948E-3,5.662720799E-1
2.395870342E0,-3.359758761E-3,2.901609987E-3,5.626068711E-1
2.398097211E0,-2.138028387E-3,4.581489484E-4,5.589417219E-1
2.400346295E0,-3.359758761E-3,-7.635815418E-4,5.564982295E-1
2.402582501E0,-2.138028387E-3,2.901609987E-3,5.552765131E-1
2.404821941E0,-9.162978968E-4,-1.985311974E-3,5.577199459E-1
2.407057171E0,-2.138028387E-3,4.581489484E-4,5.577199459E-1
2.409295880E0,-3.359758761E-3,1.679879380E-3,5.577199459E-1
2.411516461E0,-3.512475174E-3,-7.635815418E-4,5.626068711E-1
2.413764935E0,-3.359758761E-3,1.679879380E-3,5.638286471E-1
2.415996563E0,-2.138028387E-3,1.679879380E-3,5.626068711E-1
2.418229230E0,-3.359758761E-3,-7.635815418E-4,5.589417219E-1
2.420475689E0,-2.290744567E-3,-1.985311974E-3,5.589417219E-1
2.422711041E0,-9.162978968E-4,1.527163084E-3,5.577199459E-1
2.424950665E0,-4.581489135E-3,1.679879380E-3,5.552765131E-1
2.427184857E0,-5.803219974E-3,4.581489484E-4,5.564982295E-1
2.429420453E0,-2.138028387E-3,2.901609987E-3,5.613851547E-1
2.431656781E0,-2.138028387E-3,1.679879380E-3,5.662720799E-1
2.433892865E0,-1.069014193E-3,1.527163084E-3,5.748242140E-1
2.436129925E0,-1.069014193E-3,5.192354787E-3,5.833762884E-1
2.438366253E0,-2.290744567E-3,5.192354787E-3,5.919284225E-1
2.440602704E0,-2.443460980E-3,2.901609987E-3,6.004805565E-1
2.442839642E0,-0.000000000E0,1.527163084E-3,6.065891981E-1
2.445076703E0,-1.221730490E-3,3.970623948E-3,6.104071140E-1
2.447312176E0,1.221730490E-3,5.192354787E-3,6.152940392E-1
2.449548871E0,-0.000000000E0,6.414085161E-3,6.177374721E-1
2.451785016E0,-2.443460980E-3,6.414085161E-3,6.214026809E-1
2.454021832E0,-0.000000000E0,7.635815535E-3,6.238461137E-1
2.456258038E0,-3.665191587E-3,7.635815535E-3,6.214026809E-1
2.458494488E0,-3.817907767E-3,4.123340361E-3,6.188064814E-1
2.460727215E0,-1.221730490E-3,2.748893574E-3,6.140722632E-1
2.462951519E0,-2.443460980E-3,3.970623948E-3,6.078109145E-1
2.465204266E0,-1.221730490E-3,2.748893574E-3,6.004805565E-1
2.467440777E0,-2.290744567E-3,5.192354787E-3,5.882632136E-1
2.469681378E0,-3.512475174E-3,4.581489484E-4,5.748242140E-1
2.471913617E0,-2.290744567E-3,-1.985311974E-3,5.626068711E-1
2.474146954E0,3.054326226E-4,-2.138028387E-3,5.467243791E-1
2.476374493E0,-7.635815418E-4,-3.207042580E-3,5.283984542E-1
2.478623150E0,-7.635815418E-4,-1.985311974E-3,5.148066878E-1
2.480860699E0,-1.832595794E-3,-4.428773187E-3,5.001459122E-1
2.483098981E0,-2.901609987E-3,-7.635815418E-4,4.891503453E-1
2.485333722E0,-4.581489484E-4,-7.635815418E-4,4.818199575E-1
2.487571087E0,-4.581489484E-4,-1.985311974E-3,4.732678533E-1
2.489793988E0,-2.901609987E-3,-7.635815418E-4,4.708243906E-1
2.492042889E0,-1.527163084E-3,-1.985311974E-3,4.659374654E-1
2.494277264E0,9.162978968E-4,-3.207042580E-3,4.647157490E-1
2.496517865E0,-3.054326226E-4,-3.207042580E-3,4.622722864E-1
2.498752057E0,-1.527163084E-3,-3.207042580E-3,4.634940028E-1
2.500987774E0,-2.748893574E-3,4.581489484E-4,4.647157490E-1
2.503221295E0,-1.527163084E-3,-7.635815418E-4,4.683809280E-1
2.505448773E0,7.635815418E-4,-2.138028387E-3,4.720461071E-1
2.507694195E0,-3.054326226E-4,2.748893574E-3,4.720461071E-1
2.509922223E0,-4.123340361E-3,1.679879380E-3,4.793764949E-1
2.512173138E0,-4.123340361E-3,2.901609987E-3,4.891503453E-1
2.514406903E0,-4.581489484E-4,3.970623948E-3,4.915938079E-1
2.516647198E0,-4.123340361E-3,1.679879380E-3,4.964807332E-1
2.518879498E0,-2.901609987E-3,2.901609987E-3,5.025894046E-1
2.521116253E0,-3.054326167E-3,2.901609987E-3,5.062545538E-1
2.523352032E0,-3.054326167E-3,2.901609987E-3,5.123631954E-1
2.525588971E0,-6.108652451E-4,5.192354787E-3,5.174028873E-1
2.527825482E0,-6.108652451E-4,3.970623948E-3,5.222898126E-1
2.530059246E0,-1.832595794E-3,5.192354787E-3,5.283984542E-1
2.532284283E0,-1.985311974E-3,2.901609987E-3,5.357288122E-1
2.534524212E0,-3.207042580E-3,6.566801574E-3,5.418374538E-1
2.536771283E0,-3.207042580E-3,6.566801574E-3,5.479460955E-1
2.539010784E0,-9.162978968E-4,3.970623948E-3,5.540547967E-1
2.541244122E0,-2.138028387E-3,2.901609987E-3,5.601634383E-1
2.543468853E0,-9.162978968E-4,5.192354787E-3,5.638286471E-1
2.545717450E0,-3.359758761E-3,5.345070735E-3,5.711590052E-1
2.547951214E0,-2.138028387E-3,6.414085161E-3,5.760459304E-1
2.550181866E0,-4.734205548E-3,5.345070735E-3,5.845980644E-1
2.552428082E0,-4.734205548E-3,9.010262787E-3,5.943718553E-1
2.554663373E0,-2.290744567E-3,7.635815535E-3,6.029239893E-1
2.556900006E0,-3.665191587E-3,6.566801574E-3,6.114761233E-1
2.559121380E0,-2.443460980E-3,1.007927675E-2,6.165157557E-1
2.561361370E0,-3.665191587E-3,1.374446787E-2,6.262896061E-1
2.563610150E0,-4.886921961E-3,1.374446787E-2,6.348416805E-1
2.565845074E0,-4.886921961E-3,1.618792862E-2,6.458373070E-1
2.568070843E0,-7.483099122E-3,1.740965992E-2,6.556110978E-1
2.570316693E0,-3.817907767E-3,1.374446787E-2,6.666067243E-1
2.572544232E0,-3.970623948E-3,1.374446787E-2,6.751587987E-1
2.574795147E0,-6.414085161E-3,1.618792862E-2,6.800457239E-1
2.577027692E0,-3.970623948E-3,1.740965992E-2,6.824892163E-1
2.579267437E0,-1.527163084E-3,1.618792862E-2,6.826419234E-1
2.581501080E0,-6.414085161E-3,1.618792862E-2,6.776022911E-1
2.583737713E0,-5.192354787E-3,1.252273750E-2,6.690501571E-1
2.585971539E0,-3.817907767E-3,1.252273750E-2,6.568328738E-1
2.588200055E0,-3.665191587E-3,1.496619824E-2,6.385068893E-1
2.590447064E0,-4.886921961E-3,1.023199316E-2,6.214026809E-1
2.592683392E0,-4.734205548E-3,1.023199316E-2,6.053674817E-1
2.594922649E0,-7.177666761E-3,9.010262787E-3,5.845980644E-1
2.597156537E0,-7.635815418E-4,1.130100712E-2,5.638286471E-1
2.599392987E0,4.581489484E-4,6.414085161E-3,5.455026627E-1
2.601629742E0,-1.832595794E-3,6.414085161E-3,5.296201706E-1
2.603866314E0,-6.566801574E-3,9.010262787E-3,5.160284042E-1
2.606100689E0,-5.345070735E-3,6.566801574E-3,5.062545538E-1
2.608323529E0,-2.901609987E-3,7.635815535E-3,5.001459122E-1
2.610560833E0,-1.527163084E-3,7.635815535E-3,4.952589869E-1
2.612811627E0,-2.748893574E-3,1.007927675E-2,4.928155243E-1
2.615051555E0,-5.192354787E-3,1.145372353E-2,4.915938079E-1
2.617288433E0,-5.192354787E-3,1.267545391E-2,4.891503453E-1
2.619521588E0,-5.192354787E-3,1.023199316E-2,4.854851663E-1
2.621758038E0,-3.970623948E-3,1.130100712E-2,4.867068827E-1
2.623995221E0,-2.748893574E-3,8.857546374E-3,4.903720617E-1
2.626230755E0,-1.527163084E-3,7.635815535E-3,4.952589869E-1
2.628467389E0,-4.581489484E-4,7.635815535E-3,5.015203953E-1
2.630703717E0,-1.832595794E-3,3.970623948E-3,5.161811113E-1
2.632940533E0,-4.276056774E-3,5.345070735E-3,5.283984542E-1
2.635175335E0,-1.985311974E-3,5.192354787E-3,5.479460955E-1
2.637400372E0,-2.138028387E-3,7.635815535E-3,5.687155724E-1
2.639637982E0,-9.162978968E-4,8.857546374E-3,5.894849896E-1
2.641886761E0,-6.108652335E-3,1.023199316E-2,6.114761233E-1
2.644125103E0,-6.108652335E-3,1.267545391E-2,6.372851729E-1
2.646362163E0,-6.261368748E-3,1.740965992E-2,6.629415154E-1
2.648595318E0,-8.857546374E-3,1.756237634E-2,6.873761415E-1
2.650832074E0,-7.788531948E-3,1.985312067E-2,7.119634151E-1
2.653068402E0,-9.162978269E-3,1.878410578E-2,7.363980412E-1
2.655305096E0,-7.941247895E-3,2.351831272E-2,7.547240257E-1
2.657542035E0,-8.093964309E-3,2.229658142E-2,7.706065178E-1
2.659778912E0,-9.468411095E-3,2.107485011E-2,7.877107263E-1
2.662014447E0,-9.621127509E-3,2.107485011E-2,8.025242090E-1
2.664250714E0,-9.621127509E-3,2.107485011E-2,8.159632683E-1
2.666487164E0,-7.483099122E-3,1.374446787E-2,8.355109096E-1
2.668723919E0,-5.192354787E-3,1.252273750E-2,8.526151776E-1
2.670960370E0,-5.345070735E-3,1.374446787E-2,8.697193861E-1
2.673193585E0,-7.788531948E-3,1.618792862E-2,8.880453706E-1
2.675418683E0,-9.162978269E-3,1.863138936E-2,9.089674950E-1
2.677667523E0,-1.175915636E-2,2.000583708E-2,9.321803451E-1
2.679906048E0,-1.175915636E-2,2.351831272E-2,9.553932548E-1
2.682146405E0,-1.313360315E-2,2.718350291E-2,9.700540304E-1
2.684379864E0,-1.435533352E-2,2.855795063E-2,9.810495973E-1
2.686616131E0,-1.420261711E-2,3.329215571E-2,9.810495973E-1
2.688852398E0,-1.664607786E-2,3.695734590E-2,9.712757468E-1
2.691088971E0,-1.038470957E-2,3.207042441E-2,9.578366876E-1
2.693325543E0,-1.053742506E-2,2.351831272E-2,9.480628371E-1
2.695563031E0,-9.468411095E-3,1.511891466E-2,9.382890463E-1
2.697798138E0,-5.650503561E-3,1.374446787E-2,9.297369123E-1
2.700034710E0,-8.093964309E-3,1.145372353E-2,9.236282706E-1
2.702266583E0,-5.497787148E-3,1.496619824E-2,9.150761366E-1
2.704491253E0,-5.497787148E-3,1.252273750E-2,9.065240026E-1
2.706744916E0,-6.872233935E-3,1.007927675E-2,9.075930119E-1
2.708980572E0,-6.872233935E-3,7.788531948E-3,9.063712955E-1
2.711221538E0,-3.207042580E-3,2.748893574E-3,9.002626538E-1
2.713454449E0,-9.162978968E-4,-4.581489135E-3,8.917105198E-1
2.715690045E0,8.552113548E-3,-2.779436857E-2,8.746063113E-1
2.717926556E0,1.343903504E-2,-4.123340547E-2,8.526151776E-1
2.720162640E0,1.359175146E-2,-4.001167417E-2,8.280278444E-1
2.722399457E0,7.788531948E-3,-3.375030309E-2,8.072584271E-1
2.724635846E0,2.138028387E-3,-1.191187184E-2,7.803803682E-1
2.726872662E0,-4.734205548E-3,4.581489484E-4,7.498371005E-1
2.729109234E0,-6.719517522E-3,1.145372353E-2,7.241807580E-1
2.731346478E0,-6.566801574E-3,1.374446787E-2,7.008151412E-1
2.733581585E0,-6.566801574E-3,1.145372353E-2,6.812674403E-1
2.735818402E0,-4.123340361E-3,2.901609987E-3,6.690501571E-1
2.738054547E0,-4.123340361E-3,5.345070735E-3,6.653849483E-1
2.740288677E0,-2.901609987E-3,1.679879380E-3,6.666067243E-1
2.742515912E0,-1.679879380E-3,3.970623948E-3,6.714936495E-1
2.744764264E0,7.635815418E-4,6.414085161E-3,6.788240075E-1
2.747001019E0,-6.566801574E-3,9.010262787E-3,6.849326491E-1
2.749238385E0,-5.192354787E-3,1.374446787E-2,6.849326491E-1
2.751459088E0,-5.192354787E-3,1.618792862E-2,6.824892163E-1
2.753695599E0,-7.635815535E-3,1.267545391E-2,6.727153659E-1
2.755931622E0,-5.192354787E-3,1.252273750E-2,6.678284407E-1
2.758174114E0,-6.414085161E-3,1.023199316E-2,6.629415154E-1
2.760422466E0,-5.192354787E-3,9.010262787E-3,6.604980230E-1
2.762659283E0,-2.748893574E-3,7.635815535E-3,6.592763066E-1
2.764895978E0,-5.192354787E-3,7.788531948E-3,6.556110978E-1
2.767130536E0,-5.039638374E-3,7.788531948E-3,6.446155310E-1
2.769362591E0,-5.039638374E-3,9.010262787E-3,6.323982477E-1
2.771588604E0,-3.665191587E-3,6.566801574E-3,6.214026809E-1
2.773835004E0,-2.443460980E-3,3.970623948E-3,6.128505468E-1
2.776076459E0,-2.443460980E-3,3.970623948E-3,6.004805565E-1
2.778319684E0,-7.177666761E-3,5.345070735E-3,5.882632136E-1
2.780548992E0,-3.359758761E-3,6.566801574E-3,5.797111392E-1
2.782784710E0,-9.162978968E-4,7.635815535E-3,5.723807216E-1
2.785020794E0,-2.138028387E-3,6.414085161E-3,5.662720799E-1
2.787257367E0,-4.581489135E-3,5.345070735E-3,5.589417219E-1
2.789493939E0,-2.138028387E-3,2.901609987E-3,5.528330207E-1
2.791730084E0,-2.138028387E-3,2.901609987E-3,5.503895879E-1
2.793967083E0,-4.428773187E-3,7.788531948E-3,5.467243791E-1
2.796203167E0,-4.428773187E-3,4.123340361E-3,5.418374538E-1
2.798439801E0,-3.207042580E-3,6.566801574E-3,5.406157374E-1
2.800676617E0,-4.428773187E-3,6.566801574E-3,5.381723046E-1
2.802914166E0,-3.054326167E-3,6.566801574E-3,5.357288122E-1
2.805149334E0,-5.497787148E-3,9.010262787E-3,5.357288122E-1
2.807387494E0,-5.497787148E-3,1.023199316E-2,5.345070958E-1
2.809627667E0,-1.832595794E-3,8.857546374E-3,5.283984542E-1
2.811858746E0,-4.276056774E-3,7.788531948E-3,5.235115290E-1
2.814095257E0,-4.276056774E-3,6.566801574E-3,5.184718966E-1
2.816330426E0,-4.276056774E-3,4.123340361E-3,5.086980462E-1
2.818568463E0,-4.123340361E-3,5.345070735E-3,5.025894046E-1
2.820804852E0,-4.123340361E-3,7.788531948E-3,4.977024496E-1
2.823037701E0,-5.345070735E-3,6.566801574E-3,4.915938079E-1
2.825277875E0,-4.123340361E-3,1.679879380E-3,4.830417037E-1
2.827509624E0,-3.970623948E-3,4.123340361E-3,4.757113159E-1
2.829735088E0,-1.374446787E-3,6.414085161E-3,4.708243906E-1
2.831987103E0,-3.817907767E-3,5.345070735E-3,4.647157490E-1
2.834223736E0,-1.374446787E-3,3.970623948E-3,4.573853612E-1
2.836463482E0,-1.374446787E-3,6.414085161E-3,4.537201524E-1
2.838693890E0,-1.527163113E-4,2.748893574E-3,4.476115108E-1
2.840933514E0,-1.374446787E-3,1.679879380E-3,4.463897645E-1
2.843171917E0,-1.374446787E-3,4.581489484E-4,4.488332272E-1
2.845406597E0,-1.374446787E-3,1.679879380E-3,4.524984360E-1
2.847640179E0,-1.374446787E-3,5.192354787E-3,4.622722864E-1
2.849867413E0,-1.527163084E-3,2.901609987E-3,4.708243906E-1
2.852115582E0,-2.748893574E-3,6.566801574E-3,4.793764949E-1
2.854352032E0,-2.748893574E-3,6.566801574E-3,4.915938079E-1
2.856592145E0,-4.123340361E-3,9.010262787E-3,5.013676286E-1
2.858824811E0,-5.345070735E-3,9.010262787E-3,5.135849714E-1
2.861061566E0,-7.941247895E-3,7.788531948E-3,5.233588219E-1
2.863297467E0,-4.276056774E-3,9.010262787E-3,5.345070958E-1
2.865534527E0,-4.428773187E-3,4.123340361E-3,5.491678715E-1
2.867770794E0,-5.803219974E-3,6.566801574E-3,5.674937963E-1
2.870007428E0,-2.138028387E-3,7.635815535E-3,5.809328556E-1
2.872243878E0,-3.512475174E-3,7.635815535E-3,5.931501389E-1
2.874481000E0,-5.955935922E-3,9.010262787E-3,6.065891981E-1
2.876716595E0,-2.443460980E-3,1.130100712E-2,6.214026809E-1
2.878953228E0,-1.221730490E-3,1.130100712E-2,6.348416805E-1
2.881189557E0,-1.374446787E-3,1.130100712E-2,6.421720982E-1
2.883426068E0,-5.039638374E-3,1.130100712E-2,6.580545902E-1
2.885662457E0,-5.192354787E-3,1.374446787E-2,6.690501571E-1
2.887899212E0,-3.970623948E-3,1.496619824E-2,6.788240075E-1
2.890135846E0,-4.123340361E-3,1.130100712E-2,6.898195744E-1
2.892373150E0,-4.123340361E-3,1.252273750E-2,6.997461319E-1
2.894608441E0,-4.123340361E-3,1.252273750E-2,7.034113407E-1
2.896845013E0,-7.788531948E-3,1.389718428E-2,7.044803500E-1
2.899081158E0,-4.123340361E-3,1.374446787E-2,7.034113407E-1
2.901318158E0,-2.901609987E-3,1.374446787E-2,7.034113407E-1
2.903554242E0,-1.679879380E-3,1.496619824E-2,7.021896243E-1
2.905790875E0,-4.123340361E-3,1.618792862E-2,6.997461319E-1
2.908027691E0,-4.123340361E-3,1.252273750E-2,6.947064996E-1
2.910265240E0,-4.123340361E-3,1.252273750E-2,6.910412908E-1
2.912500348E0,-2.901609987E-3,8.857546374E-3,6.837109327E-1
2.914736859E0,-4.123340361E-3,7.635815535E-3,6.776022911E-1
2.916972882E0,-1.527163084E-3,6.414085161E-3,6.678284407E-1
2.919210064E0,-2.748893574E-3,7.635815535E-3,6.580545902E-1
2.921447308E0,-2.596177394E-3,8.857546374E-3,6.409503818E-1
2.923682721E0,-3.665191587E-3,1.007927675E-2,6.250678897E-1
2.925918927E0,-0.000000000E0,3.970623948E-3,6.055201888E-1
2.928154156E0,-4.886921961E-3,4.581489484E-4,5.870414972E-1
2.930392498E0,-4.581489135E-3,4.123340361E-3,5.650503635E-1
2.932629010E0,-1.985311974E-3,6.414085161E-3,5.491678715E-1
2.934865704E0,-6.108652451E-4,6.414085161E-3,5.308418870E-1
2.937101910E0,-1.679879380E-3,7.635815535E-3,5.186246037E-1
2.939338421E0,-1.679879380E-3,6.414085161E-3,5.051855445E-1
2.941574811E0,-2.901609987E-3,2.901609987E-3,4.928155243E-1
2.943811627E0,-1.527163084E-3,6.414085161E-3,4.818199575E-1
2.946045941E0,-1.527163113E-4,6.414085161E-3,4.696026444E-1
2.948272503E0,-2.596177394E-3,7.635815535E-3,4.549418986E-1
2.950520550E0,-2.596177394E-3,2.901609987E-3,4.439463317E-1
2.952756818E0,-2.443460980E-3,4.123340361E-3,4.292855561E-1
2.954993085E0,-4.886921961E-3,4.123340361E-3,4.193589985E-1
2.957215740E0,-7.177666761E-3,6.566801574E-3,4.108068645E-1
2.959461957E0,-4.734205548E-3,5.345070735E-3,4.046982229E-1
2.961703228E0,-2.290744567E-3,5.345070735E-3,3.998112977E-1
2.963943829E0,1.374446787E-3,3.054326226E-4,3.961461186E-1
2.966176678E0,-2.290744567E-3,2.901609987E-3,3.949243724E-1
2.968410260E0,-2.290744567E-3,2.901609987E-3,3.937026560E-1
2.970648785E0,-1.069014193E-3,1.679879380E-3,3.937026560E-1
2.972885541E0,-2.290744567E-3,2.901609987E-3,3.985895813E-1
2.975122479E0,-2.290744567E-3,5.345070735E-3,4.010330439E-1
2.977358441E0,1.527163113E-4,3.970623948E-3,4.060726762E-1
2.979595074E0,-2.290744567E-3,5.345070735E-3,4.146247804E-1
2.981832623E0,-3.665191587E-3,5.345070735E-3,4.231768847E-1
2.984069379E0,-3.665191587E-3,2.901609987E-3,4.341724813E-1
2.986307232E0,-1.374446787E-3,5.192354787E-3,4.463897645E-1
2.988528790E0,-5.039638374E-3,5.345070735E-3,4.586070776E-1
2.990777447E0,-3.970623948E-3,5.345070735E-3,4.708243906E-1
2.993013531E0,-2.748893574E-3,5.345070735E-3,4.842634201E-1
2.995253278E0,-1.527163084E-3,8.857546374E-3,4.978551865E-1
2.997487225E0,-4.123340361E-3,6.566801574E-3,5.086980462E-1
2.999724103E0,-1.832595794E-3,6.414085161E-3,5.198463202E-1
3.001959515E0,-1.832595794E-3,6.414085161E-3,5.332853794E-1
3.004196087E0,-5.650503561E-3,9.010262787E-3,5.418374538E-1
3.006432416E0,-3.054326167E-3,1.252273750E-2,5.503895879E-1
3.008669354E0,-6.872233935E-3,1.023199316E-2,5.589417219E-1
3.010905926E0,-5.650503561E-3,1.145372353E-2,5.674937963E-1
3.013142376E0,-4.581489135E-3,1.130100712E-2,5.784893632E-1
3.015378765E0,-3.359758761E-3,1.252273750E-2,5.870414972E-1
3.017616192E0,-5.955935922E-3,9.010262787E-3,5.931501389E-1
3.019851300E0,-7.330383174E-3,9.010262787E-3,6.053674817E-1
3.022087933E0,-7.330383174E-3,5.345070735E-3,6.102544069E-1
3.024320965E0,-7.483099122E-3,6.566801574E-3,6.212499738E-1
3.026548932E0,-5.039638374E-3,9.010262787E-3,6.348416805E-1
3.028794537E0,-5.039638374E-3,9.010262787E-3,6.433938146E-1
3.031019390E0,-6.414085161E-3,7.788531948E-3,6.556110978E-1
3.033261944E0,-3.970623948E-3,6.566801574E-3,6.678284407E-1
3.035508160E0,-2.901609987E-3,7.635815535E-3,6.763805151E-1
3.037746442E0,-2.748893574E-3,1.007927675E-2,6.800457239E-1
3.039983075E0,-4.123340361E-3,7.635815535E-3,6.776022911E-1
3.042216351E0,-7.635815535E-3,9.010262787E-3,6.714936495E-1
3.044452923E0,-6.414085161E-3,6.566801574E-3,6.604980230E-1
3.046689251E0,-5.192354787E-3,7.788531948E-3,6.519459486E-1
3.048925824E0,-5.039638374E-3,7.788531948E-3,6.372851729E-1
3.051162640E0,-3.665191587E-3,8.857546374E-3,6.214026809E-1
3.053399762E0,-2.443460980E-3,7.635815535E-3,6.104071140E-1
3.055635357E0,-2.443460980E-3,3.970623948E-3,6.004805565E-1
3.057871869E0,-4.734205548E-3,2.901609987E-3,5.894849896E-1
3.060108014E0,-5.955935922E-3,5.345070735E-3,5.797111392E-1
3.062345074E0,-4.581489135E-3,6.566801574E-3,5.711590052E-1
3.064582379E0,-4.581489135E-3,7.788531948E-3,5.650503635E-1
3.066815045E0,-3.207042580E-3,1.007927675E-2,5.552765131E-1
3.069042889E0,6.108652451E-4,1.130100712E-2,5.479460955E-1
3.071291791E0,-3.207042580E-3,7.635815535E-3,5.442809463E-1
3.073527142E0,-3.207042580E-3,5.345070735E-3,5.369505286E-1
3.075766643E0,-6.108652451E-4,3.970623948E-3,5.283984542E-1
3.077999737E0,-4.276056774E-3,5.345070735E-3,5.160284042E-1
3.080236615E0,-4.123340361E-3,7.788531948E-3,5.038111210E-1
3.082472943E0,-5.345070735E-3,6.566801574E-3,4.903720617E-1
3.084709515E0,-3.970623948E-3,6.566801574E-3,4.769330323E-1
3.086946148E0,-3.817907767E-3,5.345070735E-3,4.622722864E-1
3.089183697E0,-3.817907767E-3,5.345070735E-3,4.451680481E-1
3.091419049E0,-2.443460980E-3,6.566801574E-3,4.280638099E-1
3.093655621E0,-2.290744567E-3,2.901609987E-3,4.132503271E-1
3.095888592E0,-9.162978968E-4,4.123340361E-3,3.973678350E-1
3.098116253E0,3.054326226E-4,3.970623948E-3,3.839288056E-1
3.100364850E0,-4.428773187E-3,6.566801574E-3,3.704897761E-1
3.102601666E0,-1.832595794E-3,1.007927675E-2,3.533855379E-1
3.104838299E0,-5.497787148E-3,5.345070735E-3,3.397938013E-1
3.107060711E0,-1.679879380E-3,7.635815535E-3,3.265074790E-1
3.109296368E0,-2.901609987E-3,6.566801574E-3,3.165809214E-1
3.111535443E0,-3.970623948E-3,9.010262787E-3,3.080287874E-1
3.113786541E0,-1.374446787E-3,8.857546374E-3,2.982549667E-1
3.116020489E0,-5.192354787E-3,6.566801574E-3,2.897028327E-1
3.118247907E0,-5.039638374E-3,6.566801574E-3,2.835941911E-1
3.120493207E0,-5.039638374E-3,9.010262787E-3,2.750420868E-1
3.122729718E0,-1.374446787E-3,2.901609987E-3,2.701551616E-1
3.124970012E0,-0.000000000E0,7.635815535E-3,2.689334154E-1
3.127202496E0,-1.527163113E-4,2.901609987E-3,2.677116990E-1
3.129439373E0,-3.817907767E-3,4.123340361E-3,2.713768780E-1
3.131675641E0,-3.817907767E-3,6.566801574E-3,2.725986242E-1
3.133910321E0,-3.817907767E-3,5.345070735E-3,2.799290121E-1
3.136140912E0,-2.596177394E-3,6.566801574E-3,2.897028327E-1
3.138384991E0,-2.748893574E-3,5.345070735E-3,3.006984293E-1
3.140621746E0,-2.901609987E-3,4.123340361E-3,3.116939962E-1
3.142861309E0,-3.054326167E-3,1.679879380E-3,3.263547719E-1
3.145094342E0,-1.832595794E-3,2.901609987E-3,3.387247920E-1
3.147331219E0,-3.207042580E-3,5.345070735E-3,3.546072841E-1
3.149567364E0,-3.207042580E-3,6.566801574E-3,3.704897761E-1
3.151804120E0,-2.138028387E-3,5.345070735E-3,3.875939846E-1
3.154040631E0,-2.138028387E-3,8.857546374E-3,3.985895813E-1
3.156277081E0,-9.162978968E-4,1.007927675E-2,4.134030640E-1
3.158513592E0,-4.886921961E-3,5.345070735E-3,4.280638099E-1
3.160749676E0,-2.443460980E-3,6.566801574E-3,4.427245855E-1
3.162980023E0,-1.527163113E-4,7.635815535E-3,4.561636150E-1
3.165223004E0,-3.817907767E-3,9.010262787E-3,4.683809280E-1
3.167456646E0,-3.970623948E-3,5.345070735E-3,4.781547785E-1
3.169688214E0,-3.970623948E-3,5.345070735E-3,4.830417037E-1
3.171932416E0,-5.345070735E-3,5.345070735E-3,4.854851663E-1
3.174167828E0,-3.970623948E-3,7.788531948E-3,4.854851663E-1
3.176403973E0,-3.970623948E-3,5.345070735E-3,4.781547785E-1
3.178642621E0,-1.527163113E-4,8.857546374E-3,4.732678533E-1
3.180874004E0,9.162978968E-4,3.970623948E-3,4.671591818E-1
3.183098736E0,-1.374446787E-3,8.857546374E-3,4.598288238E-1
3.185351178E0,-3.817907767E-3,6.566801574E-3,4.573853612E-1
3.187584759E0,-2.596177394E-3,5.345070735E-3,4.549418986E-1
3.189816570E0,-2.596177394E-3,5.345070735E-3,4.500549734E-1
3.192060589E0,-1.221730490E-3,7.635815535E-3,4.463897645E-1
3.194297528E0,-4.886921961E-3,1.023199316E-2,4.427245855E-1
3.196537946E0,-3.665191587E-3,1.023199316E-2,4.390594065E-1
3.198770123E0,-4.886921961E-3,6.566801574E-3,4.317290187E-1
3.201006634E0,-1.069014193E-3,7.635815535E-3,4.280638099E-1
3.203240215E0,-3.512475174E-3,7.788531948E-3,4.243986309E-1
3.205470074E0,-2.290744567E-3,5.345070735E-3,4.182899892E-1
3.207714092E0,1.374446787E-3,2.748893574E-3,4.097378552E-1
3.209940533E0,-2.290744567E-3,6.566801574E-3,4.034765065E-1
3.212191814E0,-3.359758761E-3,9.010262787E-3,3.937026560E-1
3.214426556E0,-7.635815418E-4,8.857546374E-3,3.851505518E-1
3.216664960E0,-7.635815418E-4,5.192354787E-3,3.741549551E-1
3.218898541E0,-3.207042580E-3,5.345070735E-3,3.619376719E-1
3.221134747E0,-3.054326167E-3,4.123340361E-3,3.472768962E-1
3.223371441E0,-4.123340361E-3,6.566801574E-3,3.326161206E-1
3.225608014E0,7.635815418E-4,6.414085161E-3,3.179553747E-1
3.227844525E0,-1.527163084E-3,4.123340361E-3,3.031418920E-1
3.230081219E0,-1.374446787E-3,5.345070735E-3,2.884811163E-1
3.232318707E0,-1.374446787E-3,6.566801574E-3,2.774855494E-1
3.234553998E0,-3.817907767E-3,5.345070735E-3,2.664899528E-1
3.236790387E0,-1.221730490E-3,6.566801574E-3,2.591595948E-1
3.239023663E0,-3.665191587E-3,1.679879380E-3,2.530509233E-1
3.241251507E0,-1.221730490E-3,4.123340361E-3,2.493857294E-1
3.243499859E0,-3.665191587E-3,2.901609987E-3,2.432770878E-1
3.245736432E0,-1.069014193E-3,5.345070735E-3,2.408336252E-1
3.247976239E0,1.527163113E-4,7.635815535E-3,2.408336252E-1
3.250207562E0,1.374446787E-3,5.192354787E-3,2.432770878E-1
3.252430889E0,-1.221730490E-3,4.123340361E-3,2.469422817E-1
3.254670269E0,-1.221730490E-3,5.345070735E-3,2.481640130E-1
3.256918683E0,-2.443460980E-3,6.566801574E-3,2.554943860E-1
3.259158063E0,-2.443460980E-3,4.123340361E-3,2.591595948E-1
3.261394696E0,-2.596177394E-3,4.123340361E-3,2.664899528E-1
3.263628155E0,-1.374446787E-3,2.901609987E-3,2.750420868E-1
3.265863689E0,-1.527163113E-4,5.192354787E-3,2.848159075E-1
3.268094464E0,-2.748893574E-3,2.901609987E-3,2.933680415E-1
3.270325421E0,-4.581489484E-4,2.901609987E-3,3.068070710E-1
3.272573834E0,-1.679879380E-3,6.566801574E-3,3.155119121E-1
3.274811504E0,-4.123340361E-3,7.788531948E-3,3.240640163E-1
3.277050274E0,-2.901609987E-3,7.788531948E-3,3.350595832E-1
3.279284832E0,-1.832595794E-3,7.788531948E-3,3.436116874E-1
3.281520062E0,-6.108652451E-4,7.635815535E-3,3.521638215E-1
3.283756756E0,-1.832595794E-3,7.788531948E-3,3.619376719E-1
3.285990948E0,-1.985311974E-3,5.345070735E-3,3.741549551E-1
3.288217633E0,3.054326226E-4,5.192354787E-3,3.863722682E-1
3.290466107E0,-9.162978968E-4,6.414085161E-3,3.985895813E-1
3.292701947E0,1.527163113E-4,5.192354787E-3,4.097378552E-1
3.294941997E0,-1.069014193E-3,5.192354787E-3,4.207334518E-1
3.297175335E0,-2.290744567E-3,8.857546374E-3,4.292855561E-1
3.299411969E0,-1.221730490E-3,6.414085161E-3,4.366159439E-1
3.301648480E0,-2.596177394E-3,5.345070735E-3,4.488332272E-1
3.303885785E0,-2.596177394E-3,5.345070735E-3,4.586070776E-1
3.306118206E0,-1.527163113E-4,6.414085161E-3,4.683809280E-1
3.308345990E0,-1.527163084E-3,6.414085161E-3,4.781547785E-1
3.310593854E0,-3.970623948E-3,6.566801574E-3,4.854851663E-1
3.312830914E0,-1.679879380E-3,5.192354787E-3,4.891503453E-1
3.315070171E0,-2.901609987E-3,5.345070735E-3,4.915938079E-1
3.317303814E0,-4.581489484E-4,2.748893574E-3,4.928155243E-1
3.319540387E0,-3.054326226E-4,7.635815535E-3,4.929682612E-1
3.321777875E0,-1.679879380E-3,7.635815535E-3,4.964807332E-1
3.324012982E0,-2.748893574E-3,8.857546374E-3,4.952589869E-1
3.326249676E0,-4.581489484E-4,3.970623948E-3,4.928155243E-1
3.328486188E0,-4.123340361E-3,4.123340361E-3,4.915938079E-1
3.330723004E0,-2.901609987E-3,5.345070735E-3,4.879286289E-1
3.332959088E0,-1.527163084E-3,3.970623948E-3,4.842634201E-1
3.335192608E0,-1.527163084E-3,6.414085161E-3,4.805982411E-1
3.337419964E0,-1.527163084E-3,6.414085161E-3,4.781547785E-1
3.339667767E0,-2.748893574E-3,6.566801574E-3,4.744895697E-1
3.341904828E0,-3.054326226E-4,2.748893574E-3,4.708243906E-1
3.344144391E0,-2.748893574E-3,4.123340361E-3,4.683809280E-1
3.346378216E0,-2.596177394E-3,5.345070735E-3,4.622722864E-1
3.348614910E0,-1.374446787E-3,6.414085161E-3,4.561636150E-1
3.350852154E0,-3.817907767E-3,6.566801574E-3,4.512766898E-1
3.353087506E0,-2.443460980E-3,7.635815535E-3,4.463897645E-1
3.355324322E0,-1.374446787E-3,2.901609987E-3,4.390594065E-1
3.357558270E0,1.221730490E-3,7.635815535E-3,4.353941977E-1
3.359784160E0,-2.443460980E-3,6.566801574E-3,4.292855561E-1
3.362028362E0,-2.443460980E-3,6.566801574E-3,4.280638099E-1
3.364258832E0,-6.108652335E-3,5.345070735E-3,4.254676402E-1
3.366509442E0,-3.512475174E-3,5.345070735E-3,4.205807149E-1
3.368743328E0,-2.290744567E-3,5.345070735E-3,4.156937897E-1
3.370980328E0,1.374446787E-3,3.970623948E-3,4.097378552E-1
3.373209332E0,-1.069014193E-3,5.192354787E-3,4.022547603E-1
3.375453473E0,-9.162978968E-4,6.414085161E-3,3.973678350E-1
3.377688824E0,-2.138028387E-3,4.123340361E-3,3.937026560E-1
3.379927044E0,-3.359758761E-3,2.901609987E-3,3.900374472E-1
3.382161420E0,3.054326226E-4,3.970623948E-3,3.900374472E-1
3.384398236E0,3.054326226E-4,6.414085161E-3,3.912591934E-1
3.386634564E0,-2.138028387E-3,7.635815535E-3,3.912591934E-1
3.388871197E0,-3.359758761E-3,5.345070735E-3,3.973678350E-1
3.391108013E0,3.054326226E-4,5.192354787E-3,4.010330439E-1
3.393345257E0,-1.069014193E-3,5.192354787E-3,4.034765065E-1
3.395580426E0,1.374446787E-3,6.414085161E-3,4.097378552E-1
3.397817181E0,-1.069014193E-3,5.192354787E-3,4.120286107E-1
3.400053143E0,1.527163113E-4,5.192354787E-3,4.146247804E-1
3.402290081E0,-2.290744567E-3,7.635815535E-3,4.195117056E-1
3.404528119E0,-3.665191587E-3,5.345070735E-3,4.218024611E-1
3.406763043E0,-1.221730490E-3,2.901609987E-3,4.256203473E-1
3.408999981E0,-2.443460980E-3,4.123340361E-3,4.205807149E-1
3.411236737E0,-1.069014193E-3,3.970623948E-3,4.182899892E-1
3.413472516E0,-2.290744567E-3,5.345070735E-3,4.156937897E-1
3.415709027E0,-2.290744567E-3,5.345070735E-3,4.120286107E-1
3.417945111E0,-2.290744567E-3,2.901609987E-3,4.046982229E-1
3.420182232E0,-2.138028387E-3,4.123340361E-3,3.937026560E-1
3.422419537E0,-2.138028387E-3,6.566801574E-3,3.888157308E-1
3.424655133E0,-9.162978968E-4,5.192354787E-3,3.827070892E-1
3.426891766E0,-9.162978968E-4,1.679879380E-3,3.741549551E-1
3.429128949E0,-3.359758761E-3,-7.635815418E-4,3.680463135E-1
3.431364361E0,-7.635815418E-4,4.123340361E-3,3.594942093E-1
3.433601178E0,-1.832595794E-3,5.345070735E-3,3.533855379E-1
3.435835614E0,-3.054326167E-3,5.345070735E-3,3.472768962E-1
3.438065899E0,-1.832595794E-3,4.123340361E-3,3.411682248E-1
3.440302899E0,-1.832595794E-3,4.123340361E-3,3.338378668E-1
3.442546429E0,1.985311974E-3,2.748893574E-3,3.289509416E-1
3.444785138E0,7.635815418E-4,3.970623948E-3,3.216205537E-1
3.447022870E0,-1.679879380E-3,4.123340361E-3,3.129157126E-1
3.449256268E0,-3.970623948E-3,4.123340361E-3,3.043636084E-1
3.451492779E0,-1.527163084E-3,6.566801574E-3,2.970332205E-1
3.453729047E0,-1.527163113E-4,6.414085161E-3,2.909245789E-1
3.455962994E0,-2.596177394E-3,9.010262787E-3,2.835941911E-1
3.458190533E0,-2.596177394E-3,5.345070735E-3,2.787072659E-1
3.460438763E0,-1.374446787E-3,4.123340361E-3,2.713768780E-1
3.462675335E0,1.221730490E-3,5.192354787E-3,2.652682364E-1
3.464915509E0,-1.221730490E-3,6.566801574E-3,2.640464902E-1
3.467143414E0,-3.817907767E-3,4.123340361E-3,2.603813112E-1
3.469363202E0,-4.886921961E-3,7.788531948E-3,2.579378486E-1
3.471604535E0,-0.000000000E0,7.635815535E-3,2.579378486E-1
3.473857525E0,-1.221730490E-3,8.857546374E-3,2.554943860E-1
3.476098492E0,-2.443460980E-3,6.566801574E-3,2.567161322E-1
3.478335919E0,-0.000000000E0,6.414085161E-3,2.591595948E-1
3.480567242E0,-3.665191587E-3,5.345070735E-3,2.616030276E-1
3.482804547E0,-3.817907767E-3,5.345070735E-3,2.664899528E-1
3.485039532E0,-2.596177394E-3,5.345070735E-3,2.713768780E-1
3.487273419E0,-1.527163113E-4,4.123340361E-3,2.787072659E-1
3.489500531E0,-2.748893574E-3,2.901609987E-3,2.835941911E-1
3.491749615E0,-1.527163084E-3,2.901609987E-3,2.860376537E-1
3.493986920E0,-1.527163084E-3,4.123340361E-3,2.884811163E-1
3.496225507E0,-1.527163084E-3,5.345070735E-3,2.945897579E-1
3.498459149E0,9.162978968E-4,6.414085161E-3,2.984076738E-1
3.500696332E0,9.162978968E-4,5.192354787E-3,3.008511364E-1
3.502931683E0,-3.054326226E-4,4.123340361E-3,3.019201458E-1
3.505165447E0,-2.901609987E-3,2.901609987E-3,3.031418920E-1
3.507393048E0,-4.581489484E-4,2.901609987E-3,3.055853248E-1
3.509641217E0,-4.581489484E-4,4.581489484E-4,3.068070710E-1
3.511877850E0,-4.123340361E-3,5.345070735E-3,3.080287874E-1
3.514117412E0,-2.901609987E-3,2.901609987E-3,3.141374588E-1
3.516350017E0,1.985311974E-3,3.054326226E-4,3.179553747E-1
3.518584576E0,-4.581489484E-4,2.901609987E-3,3.228422701E-1
3.520823712E0,-6.108652451E-4,1.679879380E-3,3.301726580E-1
3.523060162E0,-3.054326167E-3,4.581489484E-4,3.375030458E-1
3.525297344E0,-3.207042580E-3,1.679879380E-3,3.436116874E-1
3.527530559E0,-1.832595794E-3,6.566801574E-3,3.546072841E-1
3.529756878E0,-1.985311974E-3,5.345070735E-3,3.631593883E-1
3.531994244E0,-3.207042580E-3,4.123340361E-3,3.704897761E-1
3.534239056E0,-3.359758761E-3,1.679879380E-3,3.790418804E-1
3.536466656E0,-3.359758761E-3,5.345070735E-3,3.863722682E-1
3.538718671E0,-4.734205548E-3,4.123340361E-3,3.949243724E-1
3.540952191E0,-1.069014193E-3,4.123340361E-3,4.034765065E-1
3.543192303E0,-2.290744567E-3,5.345070735E-3,4.134030640E-1
3.545425091E0,-3.512475174E-3,5.345070735E-3,4.182899892E-1
3.547658428E0,-1.069014193E-3,7.635815535E-3,4.280638099E-1
3.549886029E0,-6.108652335E-3,9.010262787E-3,4.329507351E-1
3.552134625E0,-4.886921961E-3,5.345070735E-3,4.378376603E-1
3.554372113E0,-3.817907767E-3,1.679879380E-3,4.439463317E-1
3.556610210E0,-3.817907767E-3,5.345070735E-3,4.488332272E-1
3.558843792E0,-3.817907767E-3,6.566801574E-3,4.549418986E-1
3.561079877E0,-5.039638374E-3,9.010262787E-3,4.610505402E-1
3.563317242E0,-3.817907767E-3,7.788531948E-3,4.647157490E-1
3.565554303E0,-1.374446787E-3,6.414085161E-3,4.696026444E-1
3.567789959E0,-1.527163084E-3,7.635815535E-3,4.757113159E-1
3.570026654E0,-3.970623948E-3,9.010262787E-3,4.793764949E-1
3.572260540E0,-3.970623948E-3,6.566801574E-3,4.867068827E-1
3.574487286E0,-3.054326226E-4,8.857546374E-3,4.905247986E-1
3.576732464E0,-1.527163084E-3,7.635815535E-3,4.940372705E-1
3.578960492E0,-4.123340361E-3,5.345070735E-3,4.915938079E-1
3.581212506E0,-3.970623948E-3,7.788531948E-3,4.891503453E-1
3.583445233E0,-2.748893574E-3,6.566801574E-3,4.818199575E-1
3.585684612E0,-1.374446787E-3,1.007927675E-2,4.744895697E-1
3.587918072E0,-1.374446787E-3,5.192354787E-3,4.659374654E-1
3.590155621E0,-3.817907767E-3,2.901609987E-3,4.549418986E-1
3.592391217E0,-1.374446787E-3,1.679879380E-3,4.476115108E-1
3.594627789E0,-1.374446787E-3,2.901609987E-3,4.402811229E-1
3.596863812E0,-2.443460980E-3,6.566801574E-3,4.317290187E-1
3.599100384E0,-2.290744567E-3,6.566801574E-3,4.182899892E-1
3.601332929E0,-3.665191587E-3,4.581489484E-4,4.059199691E-1
3.603554425E0,-2.290744567E-3,4.581489484E-4,3.985895813E-1
3.605798260E0,-4.734205548E-3,2.901609987E-3,3.924809098E-1
3.608047711E0,-9.162978968E-4,1.679879380E-3,3.814853430E-1
3.610287090E0,4.581489484E-4,1.527163084E-3,3.668245673E-1
3.612522626E0,-1.985311974E-3,-7.635815418E-4,3.546072841E-1
3.614755658E0,-4.428773187E-3,-3.207042580E-3,3.434589803E-1
3.616992535E0,-1.832595794E-3,-7.635815418E-4,3.350595832E-1
3.619229107E0,-6.108652451E-4,1.679879380E-3,3.277291954E-1
3.621465680E0,7.635815418E-4,1.527163084E-3,3.240640163E-1
3.623702252E0,-1.832595794E-3,1.679879380E-3,3.228422701E-1
3.625936444E0,-3.054326167E-3,4.581489484E-4,3.226895630E-1
3.628162640E0,-4.581489484E-4,1.679879380E-3,3.228422701E-1
3.630411419E0,-1.679879380E-3,4.123340361E-3,3.240640163E-1
3.632647504E0,-5.497787148E-3,4.123340361E-3,3.251330256E-1
3.634887677E0,-4.276056774E-3,1.679879380E-3,3.251330256E-1
3.637121808E0,-1.832595794E-3,1.679879380E-3,3.265074790E-1
3.639356915E0,-4.276056774E-3,2.901609987E-3,3.275764883E-1
3.641593609E0,-2.901609987E-3,5.345070735E-3,3.289509416E-1
3.643831036E0,-3.054326167E-3,4.123340361E-3,3.313944042E-1
3.646063702E0,-5.497787148E-3,1.679879380E-3,3.349068761E-1
3.648291913E0,-5.497787148E-3,2.901609987E-3,3.349068761E-1
3.650539349E0,-3.054326167E-3,5.345070735E-3,3.399465084E-1
3.652776227E0,-1.832595794E-3,1.679879380E-3,3.411682248E-1
3.655015423E0,-6.108652451E-4,1.679879380E-3,3.436116874E-1
3.657249371E0,-1.832595794E-3,1.679879380E-3,3.436116874E-1
3.659485943E0,-1.985311974E-3,1.679879380E-3,3.460551500E-1
3.661723248E0,-3.207042580E-3,2.901609987E-3,3.497203588E-1
3.663958539E0,-4.428773187E-3,4.123340361E-3,3.497203588E-1
3.666195172E0,-1.832595794E-3,5.345070735E-3,3.521638215E-1
3.668432415E0,-1.832595794E-3,6.566801574E-3,3.558290005E-1
3.670671917E0,-4.428773187E-3,6.566801574E-3,3.607159257E-1
3.672904400E0,-3.207042580E-3,5.345070735E-3,3.692680299E-1
3.675141156E0,-3.207042580E-3,5.345070735E-3,3.717114925E-1
3.677376874E0,-3.359758761E-3,4.123340361E-3,3.778201640E-1
3.679615338E0,3.054326226E-4,1.527163084E-3,3.802636266E-1
3.681847454E0,-3.359758761E-3,2.901609987E-3,3.827070892E-1
3.684075299E0,-2.138028387E-3,4.123340361E-3,3.863722682E-1
3.686323285E0,-1.069014193E-3,2.901609987E-3,3.937026560E-1
3.688560101E0,-2.290744567E-3,1.679879380E-3,3.998112977E-1
3.690799175E0,-1.069014193E-3,-7.635815418E-4,4.046982229E-1
3.693033001E0,-1.069014193E-3,1.679879380E-3,4.083634019E-1
3.695269574E0,-1.069014193E-3,4.123340361E-3,4.109596014E-1
3.697506939E0,1.527163113E-4,5.192354787E-3,4.146247804E-1
3.699742291E0,-2.443460980E-3,1.679879380E-3,4.181372523E-1
3.701979046E0,-4.886921961E-3,2.901609987E-3,4.156937897E-1
3.704215191E0,-2.290744567E-3,4.123340361E-3,4.158465266E-1
3.706450420E0,-1.221730490E-3,2.901609987E-3,4.182899892E-1
3.708677960E0,-2.443460980E-3,4.123340361E-3,4.195117056E-1
3.710924725E0,-1.069014193E-3,5.192354787E-3,4.207334518E-1
3.713161419E0,-0.000000000E0,3.970623948E-3,4.231768847E-1
3.715401287E0,-3.665191587E-3,5.345070735E-3,4.219551682E-1
3.717634198E0,-1.221730490E-3,5.192354787E-3,4.231768847E-1
3.719870831E0,-1.221730490E-3,4.123340361E-3,4.231768847E-1
3.722106732E0,-3.512475174E-3,7.788531948E-3,4.219551682E-1
3.724343548E0,-3.512475174E-3,6.566801574E-3,4.219551682E-1
3.726579815E0,-2.290744567E-3,6.566801574E-3,4.243986309E-1
3.728815289E0,-4.734205548E-3,9.010262787E-3,4.256203473E-1
3.731048504E0,-6.108652335E-3,5.345070735E-3,4.266893864E-1
3.733286664E0,-3.665191587E-3,4.123340361E-3,4.280638099E-1
3.735509137E0,-6.108652335E-3,6.566801574E-3,4.329507351E-1
3.737760846E0,-4.886921961E-3,9.010262787E-3,4.378376603E-1
3.739984112E0,-3.665191587E-3,9.010262787E-3,4.439463317E-1
3.742225018E0,-6.108652335E-3,1.145372353E-2,4.512766898E-1
3.744457318E0,-4.886921961E-3,1.145372353E-2,4.537201524E-1
3.746696576E0,-5.039638374E-3,6.566801574E-3,4.610505402E-1
3.748933453E0,-3.817907767E-3,9.010262787E-3,4.696026444E-1
3.751170880E0,-2.748893574E-3,7.635815535E-3,4.769330323E-1
3.753406842E0,-3.970623948E-3,6.566801574E-3,4.854851663E-1
3.755642926E0,-4.581489484E-4,3.970623948E-3,4.915938079E-1
3.757879925E0,-4.123340361E-3,2.901609987E-3,4.989241958E-1
3.760115582E0,-6.719517522E-3,4.123340361E-3,5.025894046E-1
3.762352887E0,-6.566801574E-3,9.010262787E-3,5.050328374E-1
3.764589398E0,-6.566801574E-3,6.566801574E-3,5.074763298E-1
3.766829266E0,-1.679879380E-3,3.970623948E-3,5.062545538E-1
3.769062665E0,-1.679879380E-3,3.970623948E-3,5.001459122E-1
3.771300152E0,-2.901609987E-3,5.345070735E-3,4.940372705E-1
3.773541607E0,-5.192354787E-3,7.788531948E-3,4.867068827E-1
3.775773541E0,-2.748893574E-3,5.345070735E-3,4.769330323E-1
3.778018902E0,-3.970623948E-3,6.566801574E-3,4.708243906E-1
3.780243207E0,-3.817907767E-3,6.566801574E-3,4.671591818E-1
3.782481060E0,-3.817907767E-3,4.123340361E-3,4.610505402E-1
3.784716534E0,-5.039638374E-3,6.566801574E-3,4.573853612E-1
3.786954205E0,-3.817907767E-3,4.123340361E-3,4.524984360E-1
3.789190106E0,-3.817907767E-3,5.345070735E-3,4.512766898E-1
3.791425335E0,-3.817907767E-3,4.123340361E-3,4.476115108E-1
3.793662640E0,-3.817907767E-3,4.123340361E-3,4.476115108E-1
3.795901226E0,-1.221730490E-3,6.414085161E-3,4.463897645E-1
3.798147259E0,-4.886921961E-3,7.788531948E-3,4.463897645E-1
3.800387311E0,-3.665191587E-3,9.010262787E-3,4.415028691E-1
3.802623944E0,-3.665191587E-3,4.123340361E-3,4.378376603E-1
3.804859051E0,-4.886921961E-3,6.566801574E-3,4.341724813E-1
3.807093304E0,-4.886921961E-3,6.566801574E-3,4.292855561E-1
3.809330121E0,-3.512475174E-3,9.010262787E-3,4.256203473E-1
3.811566205E0,-3.512475174E-3,7.788531948E-3,4.158465266E-1
3.813803082E0,-2.290744567E-3,6.566801574E-3,4.083634019E-1
3.816036358E0,-4.734205548E-3,4.123340361E-3,3.973678350E-1
3.818261577E0,-5.803219974E-3,4.123340361E-3,3.888157308E-1
3.820503033E0,-3.359758761E-3,5.345070735E-3,3.778201640E-1
3.822750042E0,-1.985311974E-3,6.566801574E-3,3.692680299E-1
3.824988202E0,-1.985311974E-3,4.123340361E-3,3.619376719E-1
3.827224407E0,-1.832595794E-3,5.345070735E-3,3.546072841E-1
3.829458050E0,-1.832595794E-3,2.901609987E-3,3.460551500E-1
3.831694928E0,-3.054326167E-3,4.123340361E-3,3.399465084E-1
3.833931195E0,-1.832595794E-3,2.901609987E-3,3.313944042E-1
3.836167828E0,-4.581489484E-4,4.123340361E-3,3.228422701E-1
3.838404583E0,-4.581489484E-4,5.192354787E-3,3.155119121E-1
3.840641705E0,-3.970623948E-3,5.345070735E-3,3.055853248E-1
3.842877301E0,-1.527163084E-3,2.901609987E-3,2.982549667E-1
3.845113812E0,-3.054326226E-4,4.123340361E-3,2.884811163E-1
3.847349957E0,-1.374446787E-3,5.345070735E-3,2.811507285E-1
3.849587017E0,-3.817907767E-3,5.345070735E-3,2.750420868E-1
3.851824322E0,-1.374446787E-3,1.679879380E-3,2.689334154E-1
3.854057782E0,-1.221730490E-3,5.345070735E-3,2.616030276E-1
3.856287884E0,-1.374446787E-3,1.679879380E-3,2.567161322E-1
3.858533246E0,-1.221730490E-3,5.345070735E-3,2.591595948E-1
3.860766094E0,-2.596177394E-3,1.679879380E-3,2.579378486E-1
3.862995831E0,-1.374446787E-3,4.581489484E-4,2.579378486E-1
3.865241803E0,-1.374446787E-3,2.901609987E-3,2.616030276E-1
3.867476117E0,-2.596177394E-3,2.901609987E-3,2.677116990E-1
3.869708111E0,-1.527163113E-4,5.192354787E-3,2.738203406E-1
3.871951519E0,-2.596177394E-3,5.345070735E-3,2.787072659E-1
3.874188336E0,-3.970623948E-3,5.345070735E-3,2.860376537E-1
3.876428082E0,-3.054326226E-4,4.123340361E-3,2.909245789E-1
3.878660992E0,-1.527163084E-3,2.901609987E-3,3.019201458E-1
3.880894512E0,-4.581489484E-4,4.123340361E-3,3.106249869E-1
3.883121808E0,-2.901609987E-3,4.123340361E-3,3.190243840E-1
3.885371136E0,-4.581489484E-4,5.192354787E-3,3.265074790E-1
3.887603924E0,-1.679879380E-3,6.566801574E-3,3.326161206E-1
3.889835125E0,-2.901609987E-3,7.788531948E-3,3.375030458E-1
3.892079998E0,-3.054326167E-3,7.788531948E-3,3.448334336E-1
3.894317425E0,-3.054326167E-3,4.123340361E-3,3.497203588E-1
3.896555401E0,-1.985311974E-3,5.345070735E-3,3.570507467E-1
3.898789349E0,-1.985311974E-3,6.566801574E-3,3.643811047E-1
3.901025433E0,-1.985311974E-3,6.566801574E-3,3.704897761E-1
3.903262433E0,-5.803219974E-3,5.345070735E-3,3.790418804E-1
3.905499127E0,-9.162978968E-4,5.192354787E-3,3.851505518E-1
3.907735821E0,3.054326226E-4,8.857546374E-3,3.914119005E-1
3.909973492E0,-3.359758761E-3,7.788531948E-3,3.985895813E-1
3.912209210E0,-2.290744567E-3,6.566801574E-3,4.059199691E-1
3.914444623E0,-1.069014193E-3,5.192354787E-3,4.134030640E-1
3.916680829E0,-3.512475174E-3,6.566801574E-3,4.182899892E-1
3.918917279E0,-1.069014193E-3,6.414085161E-3,4.231768847E-1
3.921154461E0,-3.665191587E-3,5.345070735E-3,4.256203473E-1
3.923391949E0,-4.886921961E-3,6.566801574E-3,4.280638099E-1
3.925627301E0,-2.290744567E-3,8.857546374E-3,4.305072725E-1
3.927863873E0,-1.221730490E-3,6.414085161E-3,4.317290187E-1
3.930100873E0,-1.069014193E-3,8.857546374E-3,4.317290187E-1
3.932336712E0,-3.665191587E-3,7.788531948E-3,4.305072725E-1
3.934573041E0,-3.512475174E-3,9.010262787E-3,4.305072725E-1
3.936809125E0,-2.290744567E-3,8.857546374E-3,4.292855561E-1
3.939045941E0,-3.665191587E-3,6.566801574E-3,4.305072725E-1
3.941282513E0,-6.108652335E-3,6.566801574E-3,4.329507351E-1
3.943518902E0,-2.443460980E-3,5.345070735E-3,4.329507351E-1
3.945755719E0,1.374446787E-3,1.007927675E-2,4.329507351E-1
3.947993023E0,1.374446787E-3,1.130100712E-2,4.317290187E-1
3.950228619E0,1.527163113E-4,8.857546374E-3,4.256203473E-1
3.952464947E0,-0.000000000E0,5.192354787E-3,4.243986309E-1
3.954701275E0,-2.290744567E-3,8.857546374E-3,4.182899892E-1
3.956938031E0,-1.069014193E-3,6.414085161E-3,4.134030640E-1
3.959174420E0,-1.069014193E-3,5.192354787E-3,4.097378552E-1
3.961410931E0,-2.290744567E-3,6.566801574E-3,4.072943926E-1
3.963647564E0,-1.069014193E-3,4.123340361E-3,4.060726762E-1
3.965884319E0,-1.069014193E-3,6.414085161E-3,4.060726762E-1
3.968117169E0,-1.069014193E-3,5.192354787E-3,4.060726762E-1
3.970356549E0,-2.290744567E-3,4.123340361E-3,4.034765065E-1
3.972593060E0,-5.955935922E-3,6.566801574E-3,4.059199691E-1
3.974830669E0,-3.512475174E-3,4.123340361E-3,4.083634019E-1
3.977066266E0,-2.290744567E-3,5.345070735E-3,4.134030640E-1
3.979302533E0,-3.512475174E-3,6.566801574E-3,4.146247804E-1
3.981539349E0,-4.734205548E-3,5.345070735E-3,4.181372523E-1
3.983776715E0,-3.665191587E-3,4.123340361E-3,4.219551682E-1
3.986009381E0,-4.886921961E-3,5.345070735E-3,4.218024611E-1
3.988236920E0,-2.443460980E-3,4.581489484E-4,4.256203473E-1
3.990484906E0,-2.443460980E-3,1.679879380E-3,4.292855561E-1
3.992721722E0,-2.443460980E-3,4.123340361E-3,4.317290187E-1
3.994962018E0,-3.817907767E-3,1.679879380E-3,4.317290187E-1
3.997194623E0,-1.221730490E-3,2.901609987E-3,4.292855561E-1
3.999431378E0,-3.665191587E-3,5.345070735E-3,4.280638099E-1
4.001668744E0,-2.443460980E-3,6.566801574E-3,4.256203473E-1
4.003900921E0,-1.069014193E-3,5.192354787E-3,4.207334518E-1
4.006125836E0,-2.443460980E-3,1.679879380E-3,4.169155359E-1
4.008364972E0,-4.734205548E-3,4.123340361E-3,4.108068645E-1
4.010613629E0,-3.512475174E-3,2.901609987E-3,4.046982229E-1
4.012852886E0,-1.069014193E-3,1.679879380E-3,3.961461186E-1
4.015089459E0,-3.512475174E-3,-7.635815418E-4,3.875939846E-1
4.017323346E0,-9.162978968E-4,4.581489484E-4,3.827070892E-1
4.019560589E0,-3.359758761E-3,2.901609987E-3,3.778201640E-1
4.021795758E0,-1.985311974E-3,2.901609987E-3,3.668245673E-1
4.024032513E0,-2.138028387E-3,-7.635815418E-4,3.594942093E-1
4.026265667E0,-4.428773187E-3,-7.635815418E-4,3.521638215E-1
4.028490826E0,-1.985311974E-3,1.679879380E-3,3.472768962E-1
4.030730084E0,6.108652451E-4,5.192354787E-3,3.399465084E-1
4.032975750E0,-1.832595794E-3,5.345070735E-3,3.338378668E-1
4.035206586E0,-1.832595794E-3,4.123340361E-3,3.301726580E-1
4.037455182E0,-1.679879380E-3,4.123340361E-3,3.265074790E-1
4.039687787E0,-1.679879380E-3,2.901609987E-3,3.216205537E-1
4.041927227E0,-1.679879380E-3,1.679879380E-3,3.178026378E-1
4.044160504E0,-4.581489484E-4,4.123340361E-3,3.179553747E-1
4.046397320E0,-2.901609987E-3,4.123340361E-3,3.178026378E-1
4.048633832E0,-4.123340361E-3,2.901609987E-3,3.153591752E-1
4.050870160E0,-2.901609987E-3,5.345070735E-3,3.129157126E-1
4.053106732E0,-2.901609987E-3,6.566801574E-3,3.130684495E-1
4.055343976E0,-4.581489484E-4,2.901609987E-3,3.118467033E-1
4.057579449E0,-3.054326226E-4,6.414085161E-3,3.106249869E-1
4.059816266E0,-2.748893574E-3,6.566801574E-3,3.092505336E-1
4.062052350E0,-3.970623948E-3,6.566801574E-3,3.080287874E-1
4.064289471E0,-2.748893574E-3,6.566801574E-3,3.092505336E-1
4.066526715E0,-3.054326226E-4,5.192354787E-3,3.057380617E-1
4.068762372E0,-3.054326226E-4,6.414085161E-3,3.032945991E-1
4.070996441E0,-3.054326226E-4,4.123340361E-3,3.043636084E-1
4.073225079E0,-2.748893574E-3,6.566801574E-3,3.031418920E-1
4.075471234E0,-2.748893574E-3,1.023199316E-2,3.069597781E-1
4.077707989E0,-1.527163084E-3,5.345070735E-3,3.068070710E-1
4.079946819E0,-3.970623948E-3,6.566801574E-3,3.068070710E-1
4.082181073E0,-3.970623948E-3,6.566801574E-3,3.080287874E-1
4.084417584E0,-3.054326226E-4,5.192354787E-3,3.118467033E-1
4.086651226E0,-4.581489484E-4,2.901609987E-3,3.130684495E-1
4.088879071E0,-4.581489484E-4,5.192354787E-3,3.130684495E-1
4.091128216E0,2.138028387E-3,6.414085161E-3,3.118467033E-1
4.093363324E0,-3.054326226E-4,6.414085161E-3,3.118467033E-1
4.095602947E0,-4.581489484E-4,2.901609987E-3,3.092505336E-1
4.097836468E0,9.162978968E-4,3.970623948E-3,3.045163155E-1
4.100070111E0,-1.527163084E-3,7.788531948E-3,3.019201458E-1
4.102297406E0,-2.748893574E-3,6.566801574E-3,2.958115041E-1
4.104545636E0,-3.970623948E-3,2.901609987E-3,2.884811163E-1
4.106782513E0,-2.596177394E-3,5.345070735E-3,2.811507285E-1
4.109022808E0,-1.527163113E-4,5.192354787E-3,2.750420868E-1
4.111255230E0,1.221730490E-3,3.970623948E-3,2.640464902E-1
4.113491803E0,-2.443460980E-3,1.679879380E-3,2.542726696E-1
4.115728131E0,-1.221730490E-3,2.901609987E-3,2.481640130E-1
4.117964886E0,-1.221730490E-3,1.679879380E-3,2.396118939E-1
4.120201031E0,-1.069014193E-3,4.123340361E-3,2.310597748E-1
4.122437787E0,1.527163113E-4,2.901609987E-3,2.261728644E-1
4.124674359E0,-1.069014193E-3,1.679879380E-3,2.212859392E-1
4.126911786E0,-1.069014193E-3,2.901609987E-3,2.162462920E-1
4.129147259E0,-1.069014193E-3,4.581489484E-4,2.174680233E-1
4.131383648E0,3.054326226E-4,5.192354787E-3,2.151772827E-1
4.133619977E0,-2.290744567E-3,4.123340361E-3,2.174680233E-1
4.135855694E0,-1.069014193E-3,1.679879380E-3,2.212859392E-1
4.138085980E0,1.527163113E-4,2.901609987E-3,2.249511331E-1
4.140317669E0,-3.512475174E-3,2.901609987E-3,2.298380435E-1
4.142566265E0,-2.290744567E-3,2.901609987E-3,2.322815061E-1
4.144804790E0,-2.443460980E-3,1.679879380E-3,2.383901626E-1
4.147041852E0,-1.221730490E-3,4.123340361E-3,2.481640130E-1
4.149275494E0,-3.665191587E-3,2.901609987E-3,2.554943860E-1
4.151511761E0,-3.817907767E-3,4.123340361E-3,2.628247738E-1
4.153748639E0,-1.527163113E-4,5.192354787E-3,2.713768780E-1
4.155981976E0,-1.527163113E-4,5.192354787E-3,2.787072659E-1
4.158209515E0,-2.748893574E-3,2.901609987E-3,2.835941911E-1
4.160458111E0,-3.054326226E-4,2.901609987E-3,2.884811163E-1
4.162695599E0,-5.192354787E-3,5.345070735E-3,2.921462953E-1
4.164930707E0,-1.527163084E-3,5.345070735E-3,2.945897579E-1
4.167155316E0,-3.054326226E-4,5.192354787E-3,2.982549667E-1
4.169403302E0,-3.054326226E-4,6.414085161E-3,3.008511364E-1
4.171640240E0,-3.054326226E-4,5.192354787E-3,3.006984293E-1
4.173879803E0,9.162978968E-4,6.414085161E-3,3.020728528E-1
4.176113385E0,-3.054326226E-4,4.123340361E-3,3.043636084E-1
4.178350018E0,-2.748893574E-3,5.345070735E-3,3.080287874E-1
4.180587445E0,-4.123340361E-3,4.123340361E-3,3.116939962E-1
4.182822552E0,7.635815418E-4,2.748893574E-3,3.118467033E-1
4.185059125E0,-3.054326226E-4,7.635815535E-3,3.142901659E-1
4.187295148E0,-1.679879380E-3,6.566801574E-3,3.179553747E-1
4.189532147E0,-4.581489484E-4,6.414085161E-3,3.203988075E-1
4.191768963E0,-4.581489484E-4,7.635815535E-3,3.216205537E-1
4.194005475E0,-1.679879380E-3,7.788531948E-3,3.252857327E-1
4.196241803E0,-2.901609987E-3,6.566801574E-3,3.301726580E-1
4.198479046E0,-4.581489484E-4,5.192354787E-3,3.313944042E-1
4.200714642E0,-4.581489484E-4,6.414085161E-3,3.350595832E-1
4.202952312E0,-4.276056774E-3,6.566801574E-3,3.387247920E-1
4.205191510E0,-1.832595794E-3,7.788531948E-3,3.411682248E-1
4.207424420E0,-4.276056774E-3,5.345070735E-3,3.423899710E-1
4.209661664E0,-1.832595794E-3,4.123340361E-3,3.436116874E-1
4.211895977E0,6.108652451E-4,1.527163084E-3,3.448334336E-1
4.214133648E0,-1.832595794E-3,4.123340361E-3,3.448334336E-1
4.216370892E0,-1.832595794E-3,2.901609987E-3,3.448334336E-1
4.218606549E0,-6.108652451E-4,5.192354787E-3,3.436116874E-1
4.220843121E0,-1.832595794E-3,5.345070735E-3,3.460551500E-1
4.223079144E0,-6.108652451E-4,6.414085161E-3,3.484986126E-1
4.225315960E0,-3.054326167E-3,9.010262787E-3,3.509420753E-1
4.227549298E0,-3.054326167E-3,6.566801574E-3,3.533855379E-1
4.229776959E0,-3.207042580E-3,2.901609987E-3,3.533855379E-1
4.232025433E0,-1.985311974E-3,2.901609987E-3,3.546072841E-1
4.234261822E0,-1.985311974E-3,4.123340361E-3,3.582724631E-1
4.236501385E0,-3.207042580E-3,5.345070735E-3,3.570507467E-1
4.238734906E0,-1.985311974E-3,6.566801574E-3,3.594942093E-1
4.240971295E0,-1.985311974E-3,4.123340361E-3,3.607159257E-1
4.243207806E0,-4.428773187E-3,5.345070735E-3,3.631593883E-1
4.245444195E0,-3.207042580E-3,5.345070735E-3,3.619376719E-1
4.247678021E0,-3.207042580E-3,4.123340361E-3,3.582724631E-1
4.249905682E0,-1.832595794E-3,5.345070735E-3,3.546072841E-1
4.252152142E0,-1.985311974E-3,2.901609987E-3,3.521638215E-1
4.254375286E0,-3.054326167E-3,4.123340361E-3,3.472768962E-1
4.256615094E0,-1.832595794E-3,5.345070735E-3,3.399465084E-1
4.258851117E0,-4.276056774E-3,4.123340361E-3,3.349068761E-1
4.261102948E0,-1.832595794E-3,4.123340361E-3,3.301726580E-1
4.263339214E0,-2.901609987E-3,9.010262787E-3,3.216205537E-1
4.265575787E0,-3.970623948E-3,1.023199316E-2,3.165809214E-1
4.267809369E0,-3.054326226E-4,6.414085161E-3,3.155119121E-1
4.270043926E0,-2.748893574E-3,9.010262787E-3,3.141374588E-1
4.272271039E0,-2.748893574E-3,6.566801574E-3,3.104722500E-1
4.274518597E0,-4.123340361E-3,4.123340361E-3,3.068070710E-1
4.276754681E0,-2.901609987E-3,1.679879380E-3,3.055853248E-1
4.278994549E0,-3.970623948E-3,5.345070735E-3,3.019201458E-1
4.281229046E0,-1.527163084E-3,5.345070735E-3,3.019201458E-1
4.283464459E0,-2.748893574E-3,4.123340361E-3,2.994766831E-1
4.285701336E0,-2.748893574E-3,5.345070735E-3,3.019201458E-1
4.287938641E0,-2.748893574E-3,7.788531948E-3,3.031418920E-1
4.290174420E0,-2.748893574E-3,6.566801574E-3,3.019201458E-1
4.292410443E0,-1.527163084E-3,6.566801574E-3,3.043636084E-1
4.294646466E0,-2.748893574E-3,6.566801574E-3,3.080287874E-1
4.296883221E0,-4.123340361E-3,5.345070735E-3,3.104722500E-1
4.299117351E0,-4.123340361E-3,5.345070735E-3,3.116939962E-1
4.301347027E0,-4.581489484E-4,5.192354787E-3,3.130684495E-1
4.303593121E0,-4.123340361E-3,6.566801574E-3,3.191770911E-1
4.305830426E0,-2.901609987E-3,6.566801574E-3,3.240640163E-1
4.308068096E0,-1.679879380E-3,6.566801574E-3,3.289509416E-1
4.310302289E0,-4.276056774E-3,2.901609987E-3,3.313944042E-1
4.312538434E0,-1.679879380E-3,7.788531948E-3,3.387247920E-1
4.314775494E0,-1.679879380E-3,8.857546374E-3,3.399465084E-1
4.317011761E0,-1.832595794E-3,7.788531948E-3,3.411682248E-1
4.319248150E0,-6.108652451E-4,6.414085161E-3,3.411682248E-1
4.321484906E0,-3.054326167E-3,7.788531948E-3,3.423899710E-1
4.323722210E0,-1.832595794E-3,6.566801574E-3,3.399465084E-1
4.325954693E0,-3.054326167E-3,6.566801574E-3,3.387247920E-1
4.328182538E0,-2.901609987E-3,9.010262787E-3,3.375030458E-1
4.330430768E0,-4.581489484E-4,7.635815535E-3,3.326161206E-1
4.332667340E0,-4.581489484E-4,7.635815535E-3,3.289509416E-1
4.334906597E0,-1.679879380E-3,8.857546374E-3,3.277291954E-1
4.337137188E0,-4.581489484E-4,7.635815535E-3,3.228422701E-1
4.339365033E0,-4.581489484E-4,5.192354787E-3,3.179553747E-1
4.341614056E0,-2.748893574E-3,6.566801574E-3,3.080287874E-1
4.343849408E0,-1.527163084E-3,2.901609987E-3,2.982549667E-1
4.346086102E0,-1.527163084E-3,5.345070735E-3,2.921462953E-1
4.348310895E0,-2.596177394E-3,6.566801574E-3,2.823724449E-1
4.350559491E0,-0.000000000E0,7.635815535E-3,2.701551616E-1
4.352796734E0,-0.000000000E0,5.192354787E-3,2.616030276E-1
4.355034893E0,-1.221730490E-3,2.901609987E-3,2.542726696E-1
4.357268658E0,-1.221730490E-3,4.581489484E-4,2.481640130E-1
4.359505902E0,-2.443460980E-3,4.123340361E-3,2.420553565E-1
4.361741498E0,-3.665191587E-3,4.123340361E-3,2.383901626E-1
4.363977887E0,-2.443460980E-3,2.901609987E-3,2.359467000E-1
4.366211651E0,1.527163113E-4,2.901609987E-3,2.335032374E-1
4.368437969E0,1.374446787E-3,1.527163084E-3,2.310597748E-1
4.370675396E0,1.374446787E-3,1.527163084E-3,2.310597748E-1
4.372923871E0,1.374446787E-3,5.192354787E-3,2.310597748E-1
4.375163007E0,1.527163113E-4,5.192354787E-3,2.322815061E-1
4.377401044E0,-1.221730490E-3,1.679879380E-3,2.359467000E-1
4.379633404E0,-1.221730490E-3,2.901609987E-3,2.383901626E-1
4.381869977E0,-2.443460980E-3,-7.635815418E-4,2.457205504E-1
4.384106061E0,-2.443460980E-3,4.581489484E-4,2.493857294E-1
4.386343121E0,-1.221730490E-3,4.123340361E-3,2.567161322E-1
4.388579388E0,-2.443460980E-3,7.788531948E-3,2.640464902E-1
4.390815777E0,-0.000000000E0,7.635815535E-3,2.664899528E-1
4.393052533E0,2.290744567E-3,3.970623948E-3,2.701551616E-1
4.395289837E0,1.069014193E-3,5.192354787E-3,2.762638032E-1
4.397525250E0,-1.527163113E-4,5.192354787E-3,2.872593701E-1
4.399761761E0,-1.527163084E-3,7.788531948E-3,2.982549667E-1
4.401997173E0,-3.054326226E-4,4.123340361E-3,3.069597781E-1
4.404229962E0,7.635815418E-4,6.414085161E-3,3.167336285E-1
4.406462994E0,-1.679879380E-3,8.857546374E-3,3.313944042E-1
4.408707928E0,-1.832595794E-3,6.566801574E-3,3.436116874E-1
4.410945354E0,-6.108652451E-4,7.635815535E-3,3.570507467E-1
4.413183758E0,4.581489484E-4,7.635815535E-3,3.741549551E-1
4.415417035E0,-9.162978968E-4,5.192354787E-3,3.888157308E-1
4.417653546E0,-2.138028387E-3,6.566801574E-3,3.998112977E-1
4.419889752E0,-1.069014193E-3,6.414085161E-3,4.121813178E-1
4.422127056E0,-1.221730490E-3,6.414085161E-3,4.280638099E-1
4.424364117E0,-1.221730490E-3,4.123340361E-3,4.390594065E-1
4.426599713E0,-3.817907767E-3,5.345070735E-3,4.476115108E-1
4.428836224E0,-2.443460980E-3,1.007927675E-2,4.537201524E-1
4.431069684E0,-5.039638374E-3,5.345070735E-3,4.586070776E-1
4.433291424E0,-2.748893574E-3,4.123340361E-3,4.647157490E-1
4.435533307E0,-2.748893574E-3,4.123340361E-3,4.708243906E-1
4.437781842E0,-1.527163084E-3,7.635815535E-3,4.769330323E-1
4.440022259E0,-2.748893574E-3,5.345070735E-3,4.805982411E-1
4.442257976E0,-2.748893574E-3,7.635815535E-3,4.842634201E-1
4.444491253E0,9.162978968E-4,7.635815535E-3,4.868595898E-1
4.446728131E0,-1.527163084E-3,6.414085161E-3,4.867068827E-1
4.448965619E0,-3.970623948E-3,9.010262787E-3,4.867068827E-1
4.451200787E0,-2.748893574E-3,7.635815535E-3,4.842634201E-1
4.453437298E0,-2.748893574E-3,5.345070735E-3,4.818199575E-1
4.455673382E0,-2.748893574E-3,5.345070735E-3,4.744895697E-1
4.457910443E0,-1.527163084E-3,4.123340361E-3,4.659374654E-1
4.460146588E0,-2.748893574E-3,1.679879380E-3,4.573853612E-1
4.462383404E0,-2.596177394E-3,1.679879380E-3,4.500549734E-1
4.464619976E0,-1.221730490E-3,6.414085161E-3,4.378376603E-1
4.466857586E0,-2.443460980E-3,4.123340361E-3,4.243986309E-1
4.469092816E0,-4.734205548E-3,2.901609987E-3,4.108068645E-1
