"Time (s)","Acceleration x (m/s^2)","Acceleration y (m/s^2)","Acceleration z (m/s^2)"
1.893588500E-2,9.391828537E0,8.033902049E-1,2.502892494E0
2.131744800E-2,9.328418732E0,8.985049129E-1,2.455035925E0
2.369901000E-2,9.260822296E0,9.499505758E-1,2.425724030E0
2.608057300E-2,9.236893654E0,1.007378340E0,2.430509567E0
2.846213500E-2,9.221938133E0,1.059422255E0,2.435295343E0
3.084369800E-2,9.250054359E0,1.083948612E0,2.477767944E0
3.322526000E-2,9.293125153E0,1.103689432E0,2.516052961E0
3.560682300E-2,9.336195946E0,1.080359459E0,2.535195589E0
3.798838500E-2,9.360722542E0,1.028315544E0,2.569293261E0
4.036994800E-2,9.403793335E0,9.954141974E-1,2.598007202E0
4.275151000E-2,9.433105469E0,9.481559992E-1,2.617149830E0
4.513307300E-2,9.448060036E0,9.050851464E-1,2.627319336E0
4.751463500E-2,9.471988678E0,8.721838593E-1,2.627319336E0
4.989619800E-2,9.481559753E0,8.673982024E-1,2.608176708E0
5.227776000E-2,9.505488396E0,8.626125455E-1,2.608176708E0
5.465932300E-2,9.482157707E0,8.626125455E-1,2.593819857E0
5.704088500E-2,9.471988678E0,8.668000102E-1,2.584248543E0
5.942244800E-2,9.477372169E0,8.620143533E-1,2.574677229E0
6.180401000E-2,9.462417603E0,8.859425783E-1,2.565105915E0
6.418557300E-2,9.438488960E0,9.050851464E-1,2.569891453E0
6.656713500E-2,9.443274498E0,8.955138922E-1,2.589034081E0
6.894869800E-2,9.438488960E0,9.194421172E-1,2.569293261E0
7.133026000E-2,9.428917885E0,9.188438654E-1,2.578864574E0
7.371182300E-2,9.424132347E0,9.092726111E-1,2.579462767E0
7.609338500E-2,9.438488960E0,9.242277741E-1,2.574079037E0
7.847494800E-2,9.428917885E0,9.242277741E-1,2.598007202E0
8.085651000E-2,9.428917885E0,9.242277741E-1,2.636292458E0
8.323802100E-2,9.457631111E0,9.146564603E-1,2.626721144E0
8.561963500E-2,9.452845573E0,9.050851464E-1,2.622533560E0
8.800114600E-2,9.471988678E0,9.056833982E-1,2.626721144E0
9.038270800E-2,9.481559753E0,8.961120844E-1,2.636890650E0
9.276427100E-2,9.486345291E0,8.913264275E-1,2.651247501E0
9.514583300E-2,9.500701904E0,8.865407705E-1,2.627319336E0
9.752739600E-2,9.510273933E0,9.008977413E-1,2.621935368E0
9.990895800E-2,9.491130829E0,8.817551732E-1,2.627319336E0
1.022905210E-1,9.481559753E0,8.673982024E-1,2.632104874E0
1.046720830E-1,9.481559753E0,8.721838593E-1,2.622533560E0
1.070536460E-1,9.467203140E0,8.721838593E-1,2.612962246E0
1.094352080E-1,9.458230019E0,8.524430394E-1,2.608176708E0
1.118167710E-1,9.448657990E0,8.524430394E-1,2.622533560E0
1.141983330E-1,9.439086914E0,8.524430394E-1,2.612962246E0
1.165798960E-1,9.429515839E0,8.668000102E-1,2.593819857E0
1.189614580E-1,9.400801659E0,8.614161611E-1,2.608176708E0
1.213430210E-1,9.396016121E0,8.662018180E-1,2.603390932E0
1.237245830E-1,9.385847092E0,8.805587292E-1,2.574677229E0
1.261061460E-1,9.376275063E0,8.949156404E-1,2.574677229E0
1.284877080E-1,9.367302895E0,8.799605370E-1,2.569891453E0
1.308692710E-1,9.361918449E0,8.895317912E-1,2.545963287E0
1.332508330E-1,9.366703987E0,8.847461939E-1,2.531606436E0
1.356323960E-1,9.347561836E0,8.847461939E-1,2.522035122E0
1.380139580E-1,9.343374252E0,8.799605370E-1,2.526820660E0
1.403955210E-1,9.333803177E0,8.745766878E-1,2.498106956E0
1.427770830E-1,9.333204269E0,8.841479421E-1,2.493321180E0
1.451586460E-1,9.328418732E0,8.889335990E-1,2.478964329E0
1.475402080E-1,9.324232101E0,8.793623447E-1,2.474178553E0
1.499217710E-1,9.314660072E0,8.835497499E-1,2.450250387E0
1.523033330E-1,9.319445610E0,8.745766878E-1,2.450250387E0
1.546848960E-1,9.337990761E0,8.937192559E-1,2.455035925E0
1.570664580E-1,9.352347374E0,9.032905698E-1,2.455035925E0
1.594480210E-1,9.352347374E0,8.937192559E-1,2.445464849E0
1.618295830E-1,9.381061554E0,8.895317912E-1,2.445464849E0
1.642111460E-1,9.385847092E0,8.895317912E-1,2.440679073E0
1.665927080E-1,9.409774780E0,8.847461939E-1,2.459821701E0
1.689742710E-1,9.428917885E0,8.949156404E-1,2.450250387E0
1.713558330E-1,9.438488960E0,8.853443861E-1,2.464607239E0
1.737373960E-1,9.438488960E0,8.805587292E-1,2.459821701E0
1.761189580E-1,9.471988678E0,8.955138922E-1,2.474178553E0
1.785005210E-1,9.495318413E0,9.146564603E-1,2.497508526E0
1.808820830E-1,9.515059471E0,9.056833982E-1,2.516651154E0
1.832636460E-1,9.548559189E0,9.200403094E-1,2.535793781E0
1.856452080E-1,9.567701340E0,9.302098155E-1,2.550150633E0
1.880267710E-1,9.601201057E0,9.349954724E-1,2.569293261E0
1.904083330E-1,9.610772133E0,9.260223508E-1,2.593221426E0
1.927898960E-1,9.620343208E0,9.212366939E-1,2.588435888E0
1.951714580E-1,9.620343208E0,9.164510965E-1,2.593221426E0
1.975530210E-1,9.615557671E0,9.020941257E-1,2.602792740E0
1.999345830E-1,9.620942116E0,8.829515576E-1,2.607578516E0
2.023161460E-1,9.597013474E0,8.638089895E-1,2.598605394E0
2.046977080E-1,9.592227936E0,8.733802438E-1,2.579462767E0
2.070792190E-1,9.573084831E0,8.536394835E-1,2.579462767E0
2.094607810E-1,9.553942680E0,8.536394835E-1,2.550748825E0
2.118423440E-1,9.529416084E0,8.530412912E-1,2.536391973E0
2.142239580E-1,9.529416084E0,8.482556343E-1,2.512463808E0
2.166054690E-1,9.510871887E0,8.482556343E-1,2.526820660E0
2.189870310E-1,9.505488396E0,8.620143533E-1,2.507678032E0
2.213685940E-1,9.500701904E0,8.572286963E-1,2.512463808E0
2.237501560E-1,9.534201622E0,8.626125455E-1,2.517249346E0
2.261317190E-1,9.534201622E0,8.530412912E-1,2.488535643E0
2.285132810E-1,9.538987160E0,8.578268886E-1,2.512463808E0
2.308948440E-1,9.524630547E0,8.626125455E-1,2.493321180E0
2.332764060E-1,9.500701904E0,8.620143533E-1,2.502892494E0
2.356579690E-1,9.482157707E0,8.524430394E-1,2.493321180E0
2.380395310E-1,9.448060036E0,8.614161611E-1,2.464607239E0
2.404210940E-1,9.419346809E0,8.751748800E-1,2.450250387E0
2.428026560E-1,9.376275063E0,8.889335990E-1,2.421536446E0
2.451842190E-1,9.357132912E0,8.841479421E-1,2.416750908E0
2.475657810E-1,9.348159790E0,8.554341197E-1,2.416750908E0
2.499473440E-1,9.329017639E0,8.650053740E-1,2.421536446E0
2.523289060E-1,9.324232101E0,8.650053740E-1,2.450250387E0
2.547104690E-1,9.333803177E0,8.554341197E-1,2.459821701E0
2.570920310E-1,9.329017639E0,8.650053740E-1,2.493321180E0
2.594735940E-1,9.352945328E0,8.416753411E-1,2.526820660E0
2.618551560E-1,9.405587196E0,8.470591903E-1,2.560320139E0
2.642367190E-1,9.429515839E0,8.189435601E-1,2.598605394E0
2.666182810E-1,9.458230019E0,8.147560954E-1,2.632104874E0
2.689998440E-1,9.482157707E0,8.195417523E-1,2.670390129E0
2.713814060E-1,9.501300812E0,8.201399446E-1,2.694318295E0
2.737629690E-1,9.520442963E0,8.201399446E-1,2.718246460E0
2.761445310E-1,9.539586067E0,8.303094506E-1,2.713460922E0
2.785260940E-1,9.559326172E0,8.398807645E-1,2.723032236E0
2.809076560E-1,9.573084831E0,8.590233326E-1,2.703889608E0
2.832892190E-1,9.582656860E0,8.685946465E-1,2.675175667E0
2.856707810E-1,9.577870369E0,8.829515576E-1,2.632104874E0
2.880523440E-1,9.529416084E0,8.961120844E-1,2.588435888E0
2.904339060E-1,9.534201622E0,9.056833982E-1,2.554936409E0
2.928154690E-1,9.514460564E0,9.385846853E-1,2.507079840E0
2.951970310E-1,9.480961800E0,9.284151793E-1,2.440080881E0
2.975785940E-1,9.452845573E0,9.092726111E-1,2.401795626E0
2.999601560E-1,9.413962364E0,9.182456732E-1,2.363510609E0
3.023417190E-1,9.381061554E0,9.176474810E-1,2.334796667E0
3.047232810E-1,9.357132912E0,9.122636318E-1,2.325823545E0
3.071048440E-1,9.318847656E0,9.068797827E-1,2.311466694E0
3.094864060E-1,9.309276581E0,8.877372146E-1,2.330609322E0
3.118679690E-1,9.309874535E0,8.739784956E-1,2.349751949E0
3.142495310E-1,9.305088997E0,8.596215248E-1,2.368894339E0
3.166310940E-1,9.319445610E0,8.315058947E-1,2.421536446E0
3.190126560E-1,9.315258980E0,7.980063558E-1,2.455035925E0
3.213942190E-1,9.329615593E0,7.740781307E-1,2.493919373E0
3.237757810E-1,9.358927727E0,7.603194118E-1,2.508276224E0
3.261573440E-1,9.354142189E0,7.603194118E-1,2.522633314E0
3.285389060E-1,9.373284340E0,7.603194118E-1,2.532204628E0
3.309204690E-1,9.396614075E0,7.800601721E-1,2.517847538E0
3.333020310E-1,9.440283775E0,7.417750359E-1,2.460419893E0
3.356835940E-1,9.502496719E0,7.040880919E-1,2.388635159E0
3.380651560E-1,9.535996437E0,7.040880919E-1,2.345564365E0
3.404467190E-1,9.550951958E0,7.136593461E-1,2.316850424E0
3.428282810E-1,9.511469841E0,7.513462901E-1,2.321636200E0
3.452097920E-1,9.492327690E0,7.704889178E-1,2.301895380E0
3.475914060E-1,9.486943245E0,7.992027402E-1,2.297109842E0
3.499729690E-1,9.486943245E0,8.279166222E-1,2.292324066E0
3.523544790E-1,9.486345291E0,8.662018180E-1,2.311466694E0
3.547360940E-1,9.471988678E0,8.799605370E-1,2.311466694E0
3.571176040E-1,9.462417603E0,8.991031051E-1,2.344367981E0
3.594991670E-1,9.462417603E0,8.943174481E-1,2.344966173E0
3.618807290E-1,9.486345291E0,8.709874153E-1,2.354537487E0
3.642622920E-1,9.486345291E0,8.757730722E-1,2.344966173E0
3.666439060E-1,9.471988678E0,8.757730722E-1,2.368894339E0
3.690254170E-1,9.457631111E0,8.895317912E-1,2.354537487E0
3.714069790E-1,9.461818695E0,9.182456732E-1,2.373081923E0
3.737885420E-1,9.438488960E0,9.038887620E-1,2.382653236E0
3.761701040E-1,9.448060036E0,8.949156404E-1,2.392822742E0
3.785516670E-1,9.438488960E0,8.895317912E-1,2.402393818E0
3.809332290E-1,9.433703423E0,8.757730722E-1,2.411965132E0
3.833147920E-1,9.414560318E0,8.991031051E-1,2.397608280E0
3.856963540E-1,9.410373688E0,8.560323119E-1,2.416750908E0
3.880779170E-1,9.429515839E0,8.374879360E-1,2.435893536E0
3.904594790E-1,9.429515839E0,8.231309652E-1,2.440679073E0
3.928410420E-1,9.458230019E0,7.992027402E-1,2.411965132E0
3.952226040E-1,9.453444481E0,8.231309652E-1,2.421536446E0
3.976041670E-1,9.410373688E0,8.081758618E-1,2.431107759E0
3.999857290E-1,9.367302895E0,8.368897438E-1,2.426322222E0
4.023672920E-1,9.309276581E0,8.883354068E-1,2.426322222E0
4.047488540E-1,9.251250267E0,9.834501147E-1,2.373081923E0
4.071304170E-1,9.265607834E0,9.595218897E-1,2.315654039E0
4.095119790E-1,9.323633194E0,9.122636318E-1,2.311466694E0
4.118935420E-1,9.395418167E0,8.697910309E-1,2.335394859E0
4.142751040E-1,9.395418167E0,8.703892231E-1,2.368894339E0
4.166566670E-1,9.390632629E0,8.847461939E-1,2.392822742E0
4.190382290E-1,9.424132347E0,8.560323119E-1,2.378465652E0
4.214197920E-1,9.482157707E0,8.279166222E-1,2.364108801E0
4.238013540E-1,9.588040352E0,7.956135273E-1,2.354537487E0
4.261829170E-1,9.563513756E0,8.434699774E-1,2.373680115E0
4.285644790E-1,9.529416084E0,8.428717852E-1,2.383251429E0
4.309460420E-1,9.583254814E0,7.956135273E-1,2.368894339E0
4.333276040E-1,9.597611427E0,8.051848412E-1,2.368894339E0
4.357091670E-1,9.587442398E0,8.291130662E-1,2.364108801E0
4.380907290E-1,9.588040352E0,8.099704385E-1,2.378465652E0
4.404722920E-1,9.602396965E0,8.009973764E-1,2.388036966E0
4.428538540E-1,9.616754532E0,8.057830334E-1,2.402393818E0
4.452354170E-1,9.607182503E0,7.818548083E-1,2.421536446E0
4.476169790E-1,9.597611427E0,8.057830334E-1,2.435893536E0
4.499985420E-1,9.683155060E0,8.458628058E-1,2.713460922E0
4.523801040E-1,9.881160736E0,6.867401004E-1,2.853441000E0
4.547616670E-1,1.001515961E1,6.113662124E-1,2.790629387E0
4.571432290E-1,1.014556789E1,4.773681164E-1,2.676372051E0
4.595247920E-1,1.010788059E1,4.480560422E-1,2.528017044E0
4.619063540E-1,1.005523872E1,4.516452849E-1,2.403590441E0
4.642879170E-1,9.910472870E0,5.892325640E-1,2.379063845E0
4.666694790E-1,9.742377281E0,6.346961856E-1,2.374278307E0
4.690510420E-1,9.555138588E0,7.334001660E-1,2.383849621E0
4.714326040E-1,9.439684868E0,7.752745152E-1,2.407179594E0
4.738141670E-1,9.271589279E0,8.356932998E-1,2.431107759E0
4.761957290E-1,9.200403214E0,8.105686903E-1,2.412563324E0
4.785772920E-1,9.114261627E0,8.434699774E-1,2.402393818E0
4.809588540E-1,9.085547447E0,8.572286963E-1,2.388036966E0
4.833404170E-1,9.065806389E0,8.811569214E-1,2.392822742E0
4.857219790E-1,9.065806389E0,8.955138922E-1,2.378465652E0
4.881035420E-1,9.056235313E0,8.955138922E-1,2.421536446E0
4.904851040E-1,9.118449211E0,8.865407705E-1,2.411965132E0
4.928666670E-1,9.190233231E0,8.536394835E-1,2.388036966E0
4.952482290E-1,9.228518486E0,8.685946465E-1,2.383251429E0
4.976297920E-1,9.285946846E0,8.548358679E-1,2.388036966E0
5.000113540E-1,9.314062119E0,8.883354068E-1,2.426322222E0
5.023929170E-1,9.357132912E0,8.793623447E-1,2.440679073E0
5.047744790E-1,9.409774780E0,8.656035662E-1,2.455035925E0
5.071560420E-1,9.433703423E0,8.805587292E-1,2.474178553E0
5.095376040E-1,9.438488960E0,8.901300430E-1,2.483749866E0
5.119191670E-1,9.438488960E0,8.853443861E-1,2.474178553E0
5.143007290E-1,9.414560318E0,8.805587292E-1,2.493321180E0
5.166822920E-1,9.453444481E0,8.279166222E-1,2.455035925E0
5.190638540E-1,9.496515274E0,8.237292171E-1,2.474178553E0
5.214454170E-1,9.453444481E0,8.285148144E-1,2.478964329E0
5.238269790E-1,9.472586632E0,8.285148144E-1,2.464607239E0
5.262085420E-1,9.521040916E0,7.860422134E-1,2.459821701E0
5.285901040E-1,9.540184021E0,7.812566161E-1,2.493321180E0
5.309716670E-1,9.569496155E0,7.770691514E-1,2.464607239E0
5.333532290E-1,9.539586067E0,8.003991842E-1,2.522035122E0
5.357347920E-1,9.574281693E0,7.722834945E-1,2.531606436E0
5.381163540E-1,9.607781410E0,7.537391186E-1,2.517249346E0
5.404979170E-1,9.622138023E0,7.441678643E-1,2.502892494E0
5.428794790E-1,9.568898201E0,8.153542876E-1,2.517249346E0
5.452610420E-1,9.530014038E0,8.195417523E-1,2.498106956E0
5.476426040E-1,9.515657425E0,8.189435601E-1,2.445464849E0
5.500241670E-1,9.486943245E0,8.333004713E-1,2.407179594E0
5.524057290E-1,9.448060036E0,8.614161611E-1,2.373680115E0
5.547872920E-1,9.381061554E0,8.985049129E-1,2.335394859E0
5.571688540E-1,9.342776299E0,9.122636318E-1,2.316252232E0
5.595504170E-1,9.327820778E0,9.361918569E-1,2.310868502E0
5.619319790E-1,9.308678627E0,9.308080077E-1,2.296511650E0
5.643135420E-1,9.279964447E0,9.451649189E-1,2.320439816E0
5.666950520E-1,9.284749985E0,9.355936646E-1,2.301297188E0
5.690766670E-1,9.304491043E0,9.212366939E-1,2.310868502E0
5.714582290E-1,9.318847656E0,9.026923180E-1,2.335394859E0
5.738397920E-1,9.342776299E0,8.835497499E-1,2.354537487E0
5.762213540E-1,9.347561836E0,8.841479421E-1,2.378465652E0
5.786029170E-1,9.371489525E0,8.841479421E-1,2.407179594E0
5.809844790E-1,9.357132912E0,8.937192559E-1,2.426322222E0
5.833660420E-1,9.395418167E0,8.895317912E-1,2.440679073E0
5.857475520E-1,9.395418167E0,8.943174481E-1,2.455035925E0
5.881291150E-1,9.395418167E0,9.038887620E-1,2.483749866E0
5.905106770E-1,9.390632629E0,8.991031051E-1,2.488535643E0
5.928922400E-1,9.404989243E0,8.991031051E-1,2.502892494E0
5.952738020E-1,9.385847092E0,8.943174481E-1,2.531606436E0
5.976553650E-1,9.376275063E0,9.086744189E-1,2.536391973E0
6.000369270E-1,9.405587196E0,8.662018180E-1,2.541177750E0
6.024184900E-1,9.434301376E0,8.524430394E-1,2.555534601E0
6.048001040E-1,9.463015556E0,8.620143533E-1,2.565105915E0
6.071816150E-1,9.476774216E0,8.955138922E-1,2.560320139E0
6.095631770E-1,9.495318413E0,9.248259664E-1,2.583650351E0
6.119447400E-1,9.533603668E0,9.535398483E-1,2.583650351E0
6.143263020E-1,9.620343208E0,8.973084688E-1,2.569293261E0
6.167078650E-1,9.625128746E0,9.403793216E-1,2.550150633E0
6.190894270E-1,9.639486313E0,9.355936646E-1,2.535793781E0
6.214709900E-1,9.663414001E0,8.973084688E-1,2.526222467E0
6.238525520E-1,9.677771568E0,8.883354068E-1,2.535793781E0
6.262341150E-1,9.610772133E0,9.254241586E-1,2.516651154E0
6.286156770E-1,9.586843491E0,9.062815905E-1,2.483151674E0
6.309972400E-1,9.563513756E0,8.961120844E-1,2.468794823E0
6.333788020E-1,9.563513756E0,8.721838593E-1,2.402393818E0
6.357603650E-1,9.529416084E0,8.907282352E-1,2.382653236E0
6.381419270E-1,9.481559753E0,8.662018180E-1,2.392822742E0
6.405234900E-1,9.463015556E0,8.135597110E-1,2.383251429E0
6.429050520E-1,9.463613510E0,7.513462901E-1,2.388635159E0
6.452866150E-1,9.430712700E0,7.411768436E-1,2.374278307E0
6.476681770E-1,9.459425926E0,6.891329288E-1,2.359921217E0
6.500497400E-1,9.464211464E0,6.843472719E-1,2.379063845E0
6.524313020E-1,9.416355133E0,6.933203340E-1,2.374278307E0
6.548128650E-1,9.382855415E0,7.220342159E-1,2.398206472E0
6.571944270E-1,9.382855415E0,7.076773047E-1,2.407777786E0
6.595759900E-1,9.306285858E0,7.686942816E-1,2.431705952E0
6.619575520E-1,9.315856934E0,7.304090858E-1,2.388635159E0
6.643391150E-1,9.325428009E0,7.256234884E-1,2.369492531E0
6.667206770E-1,9.354142189E0,7.022934556E-1,2.364706993E0
6.691022400E-1,9.363713264E0,7.070791125E-1,2.355135679E0
6.714838020E-1,9.344570160E0,7.118647099E-1,2.335993052E0
6.738653650E-1,9.282357216E0,7.639086246E-1,2.364706993E0
6.762469270E-1,9.248259544E0,8.015955687E-1,2.402992249E0
6.786284900E-1,9.295517921E0,8.356932998E-1,2.411965132E0
6.810100520E-1,9.314062119E0,9.122636318E-1,2.416750908E0
6.833916150E-1,9.404391289E0,9.224331379E-1,2.382653236E0
6.857731770E-1,9.504889488E0,9.427721500E-1,2.339582443E0
6.881547400E-1,9.605388641E0,9.672985673E-1,2.310868502E0
6.905363020E-1,9.696315765E0,9.684949517E-1,2.253440619E0
6.929178650E-1,9.695717812E0,9.876375198E-1,2.252842426E0
6.952994270E-1,9.690931320E0,1.001994491E0,2.262413740E0
6.976809900E-1,9.691530228E0,9.732806087E-1,2.301297188E0
7.000625520E-1,9.667601585E0,9.732806087E-1,2.353939295E0
7.024441150E-1,9.653244972E0,9.541380405E-1,2.416152716E0
7.048256770E-1,9.696315765E0,9.308080077E-1,2.473580360E0
7.072072400E-1,9.653244972E0,9.978070259E-1,2.578864574E0
7.095888020E-1,9.633503914E0,1.002592683E0,2.525624275E0
7.119703650E-1,9.691530228E0,9.397810698E-1,2.353939295E0
7.143519270E-1,9.625128746E0,9.002995491E-1,2.162513494E0
7.167334900E-1,9.471389771E0,8.835497499E-1,2.009372711E0
7.191150520E-1,9.319445610E0,8.482556343E-1,1.986042738E0
7.214966150E-1,9.219545364E0,7.710871100E-1,2.010569334E0
7.238781770E-1,9.181859016E0,7.226324677E-1,2.048854351E0
7.262597400E-1,9.148957253E0,6.699903607E-1,2.087737799E0
7.286413020E-1,9.087342262E0,6.646065116E-1,2.097309113E0
7.310228650E-1,9.082556725E0,6.646065116E-1,2.097309113E0
7.334044270E-1,9.057432175E0,7.411768436E-1,2.120639086E0
7.357859900E-1,9.052047729E0,8.171489239E-1,2.096710920E0
7.381675520E-1,9.070592880E0,8.554341197E-1,2.091326952E0
7.405491150E-1,9.094520569E0,8.991031051E-1,2.105684042E0
7.429306770E-1,9.117252350E0,9.517452121E-1,2.085943222E0
7.453122400E-1,9.174679756E0,9.571290612E-1,2.133799553E0
7.476938020E-1,9.255437851E0,9.966106415E-1,2.138585329E0
7.500753650E-1,9.355937004E0,1.027119160E0,2.286940336E0
7.524569270E-1,9.412766457E0,1.066002488E0,2.315055847E0
7.548384900E-1,9.522835732E0,1.024128079E0,2.334198475E0
7.572200520E-1,9.580862045E0,1.018744230E0,2.080559254E0
7.596016150E-1,9.561718941E0,1.012762189E0,1.893919110E0
7.619831770E-1,9.612566948E0,1.162911773E0,2.127817631E0
7.643647400E-1,9.768698692E0,1.328614831E0,2.447857618E0
7.667463020E-1,9.726225853E0,1.289133191E0,2.285145521E0
7.691278650E-1,9.852447510E0,1.588235974E0,2.647658348E0
7.715094270E-1,1.021077251E1,1.587637782E0,2.709273338E0
7.738909900E-1,1.058764172E1,1.610967875E0,2.766103029E0
7.762725520E-1,1.084965611E1,1.210170031E0,2.231905222E0
7.786541150E-1,1.102373409E1,1.010369420E0,1.993221283E0
7.810356770E-1,1.104407310E1,8.614161611E-1,1.711466432E0
7.834172400E-1,1.100100231E1,8.506484628E-1,1.629512191E0
7.857988020E-1,1.084367371E1,8.590233326E-1,1.677966833E0
7.881803650E-1,1.056550884E1,8.949156404E-1,1.855633974E0
7.905619270E-1,1.032084274E1,1.045663476E0,1.965105653E0
7.929434900E-1,1.011565781E1,1.019940615E0,2.046461582E0
7.953250520E-1,9.810572624E0,4.959124923E-1,2.173879385E0
7.977066150E-1,9.567103386E0,4.845465720E-1,2.360519648E0
8.000881770E-1,9.516854286E0,6.741777658E-1,2.130210400E0
8.024697400E-1,9.431908607E0,6.065805554E-1,2.149951220E0
8.048513020E-1,9.415757179E0,7.543373108E-1,2.087139606E0
8.072328650E-1,9.424730301E0,8.165507317E-1,2.019542217E0
8.096144270E-1,9.463015556E0,8.069794178E-1,1.957328916E0
8.119959900E-1,9.428318977E0,8.781659007E-1,1.909472466E0
8.143775520E-1,9.355937004E0,9.487541914E-1,1.870589137E0
8.167591150E-1,9.245866776E0,1.000199914E0,1.923231244E0
8.191406770E-1,9.120841980E0,1.051645517E0,1.913659930E0
8.215222400E-1,9.024530411E0,1.165304661E0,1.922633052E0
8.239038020E-1,8.873184204E0,1.020538807E0,2.018944025E0
8.262853650E-1,8.792427063E0,9.870393276E-1,2.134397745E0
8.286669270E-1,8.902496338E0,9.541380405E-1,2.033899307E0
8.310484900E-1,8.888737679E0,9.110672474E-1,2.062613010E0
8.334300520E-1,8.957531929E0,1.145563841E0,1.965703845E0
8.358116150E-1,9.008976936E0,1.265205026E0,1.912463546E0
8.381931770E-1,9.031708717E0,1.375872970E0,1.964507341E0
8.405747400E-1,9.059824944E0,1.409372568E0,2.002792597E0
8.429563020E-1,9.074181557E0,1.438684583E0,2.079362869E0
8.453378650E-1,9.083752632E0,1.453041553E0,2.103291035E0
8.477194270E-1,9.126823425E0,1.424925923E0,2.088934183E0
8.501009900E-1,9.247661591E0,1.296909928E0,2.065604210E0
8.524825520E-1,9.377471924E0,1.193420291E0,2.003390789E0
8.548641150E-1,9.343374252E0,1.269392371E0,1.984248161E0
8.572456770E-1,9.318249702E0,1.359721422E0,1.988435626E0
8.596272400E-1,9.424132347E0,1.308275819E0,1.978864312E0
8.620088020E-1,9.564111710E0,1.200000525E0,1.945963025E0
8.643903650E-1,9.713065147E0,1.110867858E0,1.950748682E0
8.667719270E-1,9.814162254E0,1.045065284E0,1.970489502E0
8.691534900E-1,9.890732765E0,1.051047325E0,2.037488461E0
8.715350520E-1,9.937990189E0,1.080359459E0,2.075175524E0
8.739166150E-1,9.948758125E0,1.013360381E0,2.128415823E0
8.762981770E-1,9.953543663E0,1.018744230E0,2.224128723E0
8.786797400E-1,9.923633575E0,1.122832060E0,2.079961061E0
8.810613020E-1,9.894919395E0,1.098903775E0,2.123031855E0
8.834428650E-1,9.851250648E0,1.198804140E0,2.103291035E0
8.858244270E-1,9.788438797E0,1.221535921E0,2.055434704E0
8.882059900E-1,9.747162819E0,1.097707391E0,2.127817631E0
8.905875520E-1,9.747162819E0,1.101894855E0,2.070389748E0
8.929691150E-1,9.723235130E0,1.091725349E0,2.012962103E0
8.953506770E-1,9.666405678E0,1.019940615E0,2.042274237E0
8.977322400E-1,9.632905960E0,1.038485050E0,2.018345833E0
9.001138020E-1,9.608977318E0,1.052243710E0,1.975275040E0
9.024953650E-1,9.580264091E0,1.075573802E0,1.970489502E0
9.048769270E-1,9.531808853E0,1.079761267E0,1.941775560E0
9.072584900E-1,9.516854286E0,1.098903775E0,1.956132531E0
9.096400520E-1,9.507881165E0,1.089332461E0,1.956132531E0
9.120216150E-1,9.498309135E0,1.074975610E0,1.960918188E0
9.144031770E-1,9.483952522E0,1.064806104E0,1.951346874E0
9.167847400E-1,9.455238342E0,1.064806104E0,1.980060697E0
9.191663020E-1,9.431310654E0,1.088734269E0,1.975275040E0
9.215478650E-1,9.426525116E0,1.079162955E0,1.989632010E0
9.239294270E-1,9.422337532E0,1.045663476E0,1.984846354E0
9.263109900E-1,9.421739578E0,1.060020447E0,2.013560295E0
9.286925520E-1,9.431908607E0,1.040877819E0,2.027917147E0
9.310741150E-1,9.436694145E0,1.036092162E0,2.051845312E0
9.334556770E-1,9.436694145E0,1.046261668E0,2.066202402E0
9.358372400E-1,9.412167549E0,1.069591761E0,2.080559254E0
9.382188020E-1,9.431908607E0,1.055832982E0,2.104487419E0
9.406003650E-1,9.413962364E0,8.775677085E-1,1.842473388E0
9.429819270E-1,9.412766457E0,1.026520967E0,2.104487419E0
9.453634900E-1,9.434301376E0,8.165507317E-1,2.091326952E0
9.477450520E-1,9.411569595E0,1.156331539E0,2.190030813E0
9.501266150E-1,9.411569595E0,1.131805062E0,2.037488461E0
9.525081770E-1,9.395418167E0,1.313659668E0,2.117648125E0
9.548897400E-1,9.410971642E0,1.213161111E0,2.123031855E0
9.572713020E-1,9.510871887E0,1.218544960E0,2.060818434E0
9.596528650E-1,9.613164902E0,1.085145116E0,1.822134495E0
9.620344270E-1,9.661021233E0,1.100698471E0,1.955534339E0
9.644159900E-1,9.723235130E0,1.086341500E0,1.864607096E0
9.667975520E-1,9.741779327E0,1.139581800E0,2.008176327E0
9.691791150E-1,9.722636223E0,1.124626637E0,1.874178290E0
9.715606770E-1,9.712467194E0,1.201795220E0,2.032104731E0
9.739422400E-1,9.717252731E0,1.220937729E0,2.012363911E0
9.763238020E-1,9.688538551E0,1.210768223E0,1.974676847E0
9.787053650E-1,9.683753014E0,1.215553880E0,1.993819475E0
9.810869270E-1,9.659825325E0,1.196411371E0,2.008176327E0
9.834684900E-1,9.650253296E0,1.210768223E0,2.027318954E0
9.858500520E-1,9.655039787E0,1.196411371E0,2.041675806E0
9.882316150E-1,9.612566948E0,1.186241865E0,2.017747641E0
9.906131770E-1,9.569496155E0,1.190429211E0,2.027318954E0
9.929947400E-1,9.555138588E0,1.176072359E0,1.979462504E0
9.953763020E-1,9.525827408E0,1.161117196E0,1.965105653E0
9.977578650E-1,9.497711182E0,1.136590719E0,1.888535261E0
1.000139427E0,9.488140106E0,1.116850019E0,1.850848317E0
1.002520990E0,9.483952522E0,1.083350420E0,1.783849239E0
1.004902552E0,9.445667267E0,1.063609719E0,1.769492388E0
1.007284115E0,9.436096191E0,1.054038405E0,1.774278045E0
1.009665677E0,9.412167549E0,1.067797065E0,1.759921074E0
1.012047240E0,9.397810936E0,1.058225870E0,1.779063582E0
1.014428802E0,9.388239861E0,1.091725349E0,1.764706731E0
1.016810365E0,9.373284340E0,1.120439172E0,1.793420553E0
1.019191927E0,9.382855415E0,1.115653515E0,1.826920033E0
1.021573490E0,9.358927727E0,1.130010486E0,1.889133453E0
1.023955052E0,9.369096756E0,1.116251707E0,1.941775560E0
1.026336615E0,9.369096756E0,1.111466169E0,1.951346874E0
1.028718177E0,9.388239861E0,1.106680512E0,1.956132531E0
1.031099792E0,9.421739578E0,1.073779106E0,1.941775560E0
1.033481302E0,9.412167549E0,1.088136077E0,1.965703845E0
1.035862865E0,9.431310654E0,1.088136077E0,1.951346874E0
1.038244427E0,9.445667267E0,1.069591761E0,1.946561217E0
1.040626042E0,9.460023880E0,1.083948612E0,1.960918188E0
1.043007604E0,9.478569031E0,1.103091240E0,1.941775560E0
1.045389167E0,9.474381447E0,1.088734269E0,1.932204247E0
1.047770729E0,9.492925644E0,1.098305583E0,1.932204247E0
1.050152292E0,9.497711182E0,1.112662554E0,1.936989903E0
1.052533854E0,9.531210899E0,1.113260746E0,1.922633052E0
1.054915417E0,9.574879646E0,1.103689432E0,1.908276081E0
1.057296979E0,9.570094109E0,1.113260746E0,1.913061738E0
1.059678542E0,9.574879646E0,1.113260746E0,1.889133453E0
1.062060104E0,9.598808289E0,1.122832060E0,1.845464468E0
1.064441667E0,9.617352486E0,1.133001566E0,1.864607096E0
1.066823229E0,9.617950439E0,1.099501967E0,1.850848317E0
1.069204792E0,9.651450157E0,1.080957651E0,1.860419631E0
1.071586354E0,9.666405678E0,1.052243710E0,1.903490424E0
1.073967917E0,9.704689980E0,1.004985452E0,1.908276081E0
1.076349479E0,9.686145782E0,9.667003751E-1,1.932204247E0
1.078731042E0,9.686145782E0,9.529415965E-1,1.995015860E0
1.081112604E0,9.686145782E0,9.864411354E-1,2.042274237E0
1.083494167E0,9.699904442E0,1.019940615E0,2.051845312E0
1.085875729E0,9.675976753E0,1.043270707E0,2.032702923E0
1.088257292E0,9.695118904E0,1.053440213E0,2.003988981E0
1.090638854E0,9.680164337E0,1.076770186E0,2.008774519E0
1.093020417E0,9.684949875E0,1.081555843E0,2.003988981E0
1.095401979E0,9.661021233E0,1.115055323E0,2.003390789E0
1.097783542E0,9.637093544E0,1.109671474E0,1.993819475E0
1.100165104E0,9.598209381E0,1.147358418E0,1.979462504E0
1.102546667E0,9.598209381E0,1.161715388E0,1.931606054E0
1.104928229E0,9.583852768E0,1.161715388E0,1.936391711E0
1.107309792E0,9.564710617E0,1.180259824E0,1.955534339E0
1.109691354E0,9.559925079E0,1.175474167E0,1.950748682E0
1.112072917E0,9.574281693E0,1.152144074E0,1.950748682E0
1.114454479E0,9.584450722E0,1.137787223E0,1.950748682E0
1.116836042E0,9.593423843E0,1.137787223E0,1.941177368E0
1.119217604E0,9.593423843E0,1.176072359E0,1.931606054E0
1.121599167E0,9.598209381E0,1.185643673E0,1.931606054E0
1.123980729E0,9.592825890E0,1.219143152E0,1.936391711E0
1.126362292E0,9.606584549E0,1.262213945E0,1.911865234E0
1.128743854E0,9.611370087E0,1.281356573E0,1.892722726E0
1.131125417E0,9.625727654E0,1.281356573E0,1.892722726E0
1.133506979E0,9.644869804E0,1.286142230E0,1.892722726E0
1.135888542E0,9.649655342E0,1.271785259E0,1.911865234E0
1.138270104E0,9.635298729E0,1.286142230E0,1.921436548E0
1.140651667E0,9.630513191E0,1.290927768E0,1.945364833E0
1.143033229E0,9.610772133E0,1.324427366E0,1.954936147E0
1.145414792E0,9.572486877E0,1.338186026E0,1.945364833E0
1.147796354E0,9.577272415E0,1.347757339E0,1.926222205E0
1.150177917E0,9.553344727E0,1.366301775E0,1.916650891E0
1.152559479E0,9.533603668E0,1.347159147E0,1.897508383E0
1.154941042E0,9.509675026E0,1.332802176E0,1.897508383E0
1.157322604E0,9.495916367E0,1.284945726E0,1.897508383E0
1.159704167E0,9.472586632E0,1.260419369E0,1.888535261E0
1.162085729E0,9.448657990E0,1.236491084E0,1.883749604E0
1.164467292E0,9.444471359E0,1.207777262E0,1.888535261E0
1.166848854E0,9.430113792E0,1.197607756E0,1.888535261E0
1.169230417E0,9.401998520E0,1.154536963E0,1.883749604E0
1.171611979E0,9.401998520E0,1.154536963E0,1.864607096E0
1.173993542E0,9.382855415E0,1.168893814E0,1.869392633E0
1.176375104E0,9.373284340E0,1.149751306E0,1.874776483E0
1.178756667E0,9.344570160E0,1.149153113E0,1.884347796E0
1.181138229E0,9.334999084E0,1.158724308E0,1.869392633E0
1.183519792E0,9.334401131E0,1.187438250E0,1.888535261E0
1.185901354E0,9.334401131E0,1.197009563E0,1.878963947E0
1.188282917E0,9.372686386E0,1.206580877E0,1.855035782E0
1.190664479E0,9.406186104E0,1.216750264E0,1.840678811E0
1.193046042E0,9.453444481E0,1.222134113E0,1.840678811E0
1.195427604E0,9.467801094E0,1.236491084E0,1.855035782E0
1.197809167E0,9.515657425E0,1.251446247E0,1.874178290E0
1.200190729E0,9.529416084E0,1.265803218E0,1.897508383E0
1.202572292E0,9.538987160E0,1.266401410E0,1.950150490E0
1.204953854E0,9.577870369E0,1.271785259E0,1.988435626E0
1.207335417E0,9.601799011E0,1.276570916E0,1.998006940E0
1.209716979E0,9.625727654E0,1.277169108E0,2.002792597E0
1.212098542E0,9.640084267E0,1.248455167E0,2.036292076E0
1.214480104E0,9.635298729E0,1.272383451E0,2.036292076E0
1.216861667E0,9.649655342E0,1.268195987E0,2.045863390E0
1.219243229E0,9.650253296E0,1.244267821E0,2.050648928E0
1.221624792E0,9.674181938E0,1.225125194E0,2.046461582E0
1.224006354E0,9.669396400E0,1.191625714E0,2.022533417E0
1.226387917E0,9.650852203E0,1.177268744E0,2.036890268E0
1.228769479E0,9.650852203E0,1.162911773E0,2.051247120E0
1.231151042E0,9.617352486E0,1.143171072E0,2.051247120E0
1.233532604E0,9.598209381E0,1.143171072E0,2.056032896E0
1.235914167E0,9.579665184E0,1.124028444E0,2.046461582E0
1.238295729E0,9.535996437E0,1.109073281E0,2.056631088E0
1.240677292E0,9.512067795E0,1.122832060E0,2.027917147E0
1.243058854E0,9.516854286E0,1.098903775E0,1.975275040E0
1.245440417E0,9.512666702E0,1.070189953E0,1.941775560E0
1.247821979E0,9.483952522E0,1.074377418E0,1.936989903E0
1.250203542E0,9.498309135E0,1.055234790E0,1.922633052E0
1.252585104E0,9.493523598E0,1.040877819E0,1.913061738E0
1.254966667E0,9.479764938E0,1.026520967E0,1.903490424E0
1.257348229E0,9.451051712E0,1.040877819E0,1.917847395E0
1.259729844E0,9.431908607E0,1.045065284E0,1.913061738E0
1.262111354E0,9.441479683E0,1.035493970E0,1.893919110E0
1.264492969E0,9.436694145E0,1.025922656E0,1.869990945E0
1.266874479E0,9.431908607E0,1.021137118E0,1.850848317E0
1.269256042E0,9.431908607E0,1.001994491E0,1.894517303E0
1.271637656E0,9.417551994E0,1.001994491E0,1.884945989E0
1.274019219E0,9.412766457E0,9.972088337E-1,1.884945989E0
1.276400781E0,9.442078590E0,9.684949517E-1,1.880160451E0
1.278782344E0,9.461220741E0,9.643075466E-1,1.889731646E0
1.281163906E0,9.494720459E0,9.595218897E-1,1.884945989E0
1.283545469E0,9.523433685E0,9.457631707E-1,1.889731646E0
1.285927031E0,9.552745819E0,9.176474810E-1,1.899302959E0
1.288308594E0,9.582057953E0,9.032905698E-1,1.932802439E0
1.290690104E0,9.591031075E0,9.086744189E-1,1.942373753E0
1.293071719E0,9.620343208E0,8.991031051E-1,1.951945066E0
1.295453281E0,9.624530792E0,9.044869542E-1,1.990230203E0
1.297834844E0,9.634700775E0,8.949156404E-1,2.014158487E0
1.300216406E0,9.625128746E0,8.901300430E-1,2.014158487E0
1.302597969E0,9.620343208E0,8.997012973E-1,2.023729801E0
1.304979531E0,9.634700775E0,8.997012973E-1,1.990230203E0
1.307361094E0,9.668199539E0,8.805587292E-1,1.971087694E0
1.309742656E0,9.672985077E0,8.757730722E-1,1.956730723E0
1.312124219E0,9.687342644E0,8.662018180E-1,1.932802439E0
1.314505781E0,9.682557106E0,8.709874153E-1,1.928016901E0
1.316887344E0,9.710672379E0,8.811569214E-1,1.894517303E0
1.319268906E0,9.744172096E0,8.859425783E-1,1.884945989E0
1.321650469E0,9.758528709E0,9.290133715E-1,1.908874273E0
1.324032031E0,9.734002113E0,9.481559992E-1,1.918445587E0
1.326413594E0,9.704689980E0,1.009771109E0,1.917847395E0
1.328795156E0,9.690333366E0,1.038485050E0,1.898704767E0
1.331176719E0,9.661619186E0,1.047458172E0,1.903490424E0
1.333558281E0,9.623334885E0,1.061216831E0,1.893919110E0
1.335939844E0,9.628120422E0,1.056431174E0,1.855633974E0
1.338321406E0,9.599406242E0,1.042074203E0,1.817348838E0
1.340702969E0,9.609575272E0,1.003789067E0,1.793420553E0
1.343084531E0,9.595218658E0,9.936196208E-1,1.783849239E0
1.345466094E0,9.585647583E0,1.003190875E0,1.779063582E0
1.347847656E0,9.595218658E0,9.888339639E-1,1.769492388E0
1.350229219E0,9.561718941E0,9.882357717E-1,1.750349760E0
1.352610781E0,9.566504478E0,1.003190875E0,1.750349760E0
1.354992344E0,9.546764374E0,1.016949654E0,1.759921074E0
1.357373906E0,9.542576790E0,1.007378340E0,1.774278045E0
1.359755469E0,9.527621269E0,1.002592683E0,1.764706731E0
1.362137031E0,9.537193298E0,9.882357717E-1,1.735992789E0
1.364518594E0,9.585647583E0,9.786644578E-1,1.688136339E0
1.366900156E0,9.590433121E0,9.601200819E-1,1.678565025E0
1.369281719E0,9.595218658E0,9.840483069E-1,1.697707653E0
1.371663281E0,9.613762856E0,1.003190875E0,1.697707653E0
1.374044844E0,9.613762856E0,1.031904817E0,1.707278967E0
1.376426406E0,9.623334885E0,1.051047325E0,1.721635938E0
1.378807969E0,9.627521515E0,1.055832982E0,1.697707653E0
1.381189531E0,9.641879082E0,1.084546804E0,1.707278967E0
1.383571094E0,9.646066666E0,1.109073281E0,1.735394597E0
1.385952656E0,9.632308006E0,1.085145116E0,1.759921074E0
1.388334219E0,9.626923561E0,1.113858938E0,1.764108539E0
1.390715781E0,9.650852203E0,1.113858938E0,1.768894196E0
1.393097344E0,9.646066666E0,1.128215909E0,1.816750646E0
1.395478906E0,9.660423279E0,1.128814101E0,1.831107497E0
1.397860469E0,9.665208817E0,1.124028444E0,1.850250125E0
1.400242031E0,9.650852203E0,1.123430252E0,1.816750646E0
1.402623594E0,9.670592308E0,1.085743308E0,1.807777524E0
1.405005156E0,9.679565430E0,1.114457130E0,1.773679733E0
1.407386719E0,9.660423279E0,1.118644595E0,1.768894196E0
1.409768281E0,9.655637741E0,1.133001566E0,1.778465390E0
1.412149844E0,9.679565430E0,1.137787223E0,1.740180254E0
1.414531406E0,9.674779892E0,1.118644595E0,1.730608940E0
1.416912969E0,9.674779892E0,1.123430252E0,1.735394597E0
1.419294531E0,9.689137459E0,1.142572761E0,1.721037745E0
1.421676094E0,9.665208817E0,1.156929731E0,1.716252089E0
1.424057708E0,9.674181938E0,1.161715388E0,1.716252089E0
1.426439271E0,9.669396400E0,1.190429211E0,1.706680775E0
1.428820781E0,9.650253296E0,1.199402332E0,1.706680775E0
1.431202396E0,9.635298729E0,1.232901812E0,1.686939955E0
1.433583958E0,9.615557671E0,1.280160069E0,1.706082582E0
1.435965521E0,9.616155624E0,1.275972724E0,1.739582062E0
1.438347083E0,9.611370087E0,1.271187067E0,1.773081541E0
1.440728646E0,9.606584549E0,1.256830096E0,1.758724689E0
1.443110208E0,9.611968994E0,1.213759303E0,1.764108539E0
1.445491771E0,9.659226418E0,1.242473125E0,1.686939955E0
1.447873333E0,9.640084267E0,1.241874933E0,1.566700578E0
1.450254896E0,9.625727654E0,1.232303619E0,1.571486235E0
1.452636458E0,9.597013474E0,1.250848055E0,1.581057549E0
1.455018021E0,9.592227936E0,1.269990563E0,1.614557028E0
1.457399583E0,9.573084831E0,1.269990563E0,1.652842283E0
1.459781146E0,9.533603668E0,1.298704505E0,1.648056626E0
1.462162708E0,9.524630547E0,1.269392371E0,1.652842283E0
1.464544271E0,9.510273933E0,1.259821177E0,1.676770449E0
1.466925833E0,9.491130829E0,1.264606714E0,1.681556106E0
1.469307396E0,9.506086349E0,1.235892892E0,1.658226132E0
1.471688958E0,9.510871887E0,1.207179070E0,1.658226132E0
1.474070521E0,9.511469841E0,1.159322619E0,1.643869162E0
1.476452083E0,9.506684303E0,1.154536963E0,1.653440475E0
1.478833646E0,9.473184586E0,1.159322619E0,1.648654819E0
1.481215208E0,9.487542152E0,1.135394335E0,1.596012712E0
1.483596771E0,9.473783493E0,1.101296663E0,1.563111424E0
1.485978333E0,9.473184586E0,1.153938770E0,1.538584948E0
1.488359896E0,9.482755661E0,1.153938770E0,1.514656782E0
1.490741458E0,9.516255379E0,1.139581800E0,1.500299811E0
1.493123021E0,9.525827408E0,1.140179992E0,1.505085468E0
1.495504583E0,9.545567513E0,1.135394335E0,1.490728498E0
1.497886146E0,9.530612946E0,1.159322619E0,1.509871125E0
1.500267708E0,9.534799576E0,1.192822099E0,1.509871125E0
1.502649271E0,9.554540634E0,1.183250785E0,1.519442320E0
1.505030833E0,9.564111710E0,1.211964726E0,1.500299811E0
1.507412396E0,9.597013474E0,1.231705427E0,1.499701619E0
1.509793958E0,9.616155624E0,1.250848055E0,1.523629785E0
1.512175521E0,9.620942116E0,1.236491084E0,1.537986755E0
1.514557083E0,9.616155624E0,1.236491084E0,1.533201098E0
1.516938646E0,9.620942116E0,1.250848055E0,1.542772412E0
1.519320208E0,9.616155624E0,1.246660590E0,1.571486235E0
1.521701771E0,9.635298729E0,1.232303619E0,1.600200176E0
1.524083333E0,9.654440880E0,1.266401410E0,1.619342685E0
1.526464896E0,9.668798447E0,1.242473125E0,1.628913999E0
1.528846458E0,9.668798447E0,1.247258782E0,1.638485312E0
1.531228021E0,9.683155060E0,1.228116274E0,1.657627940E0
1.533609583E0,9.668798447E0,1.218544960E0,1.671984792E0
1.535991146E0,9.654440880E0,1.252044439E0,1.676770449E0
1.538372708E0,9.668199539E0,1.266401410E0,1.633699656E0
1.540754323E0,9.677771568E0,1.280758262E0,1.628913999E0
1.543135833E0,9.668199539E0,1.271187067E0,1.628913999E0
1.545517396E0,9.659226418E0,1.251446247E0,1.590628862E0
1.547899010E0,9.649655342E0,1.241874933E0,1.585843205E0
1.550280573E0,9.649655342E0,1.251446247E0,1.585843205E0
1.552662135E0,9.635298729E0,1.246660590E0,1.557129383E0
1.555043698E0,9.597013474E0,1.231705427E0,1.542772412E0
1.557425260E0,9.601799011E0,1.236491084E0,1.557129383E0
1.559806823E0,9.611370087E0,1.217348576E0,1.567298889E0
1.562188385E0,9.601799011E0,1.217348576E0,1.586441398E0
1.564569948E0,9.616754532E0,1.213161111E0,1.576870084E0
1.566951510E0,9.616754532E0,1.198804140E0,1.619940877E0
1.569333073E0,9.621540070E0,1.194018483E0,1.610369682E0
1.571714635E0,9.616754532E0,1.194018483E0,1.615155339E0
1.574096198E0,9.616754532E0,1.208375454E0,1.624726534E0
1.576477760E0,9.616754532E0,1.198804140E0,1.619940877E0
1.578859323E0,9.626325607E0,1.194018483E0,1.610369682E0
1.581240885E0,9.621540070E0,1.170090318E0,1.624726534E0
1.583622448E0,9.611968994E0,1.189232826E0,1.605584025E0
1.586004010E0,9.635896683E0,1.198804140E0,1.591227055E0
1.588385573E0,9.654440880E0,1.213161111E0,1.591227055E0
1.590767135E0,9.640084267E0,1.227517962E0,1.576271892E0
1.593148698E0,9.640084267E0,1.222732425E0,1.561915040E0
1.595530260E0,9.640084267E0,1.217946768E0,1.561915040E0
1.597911823E0,9.635298729E0,1.251446247E0,1.547558069E0
1.600293385E0,9.635298729E0,1.246660590E0,1.537986755E0
1.602674948E0,9.635298729E0,1.250848055E0,1.523629785E0
1.605056510E0,9.635298729E0,1.255633712E0,1.518844128E0
1.607438073E0,9.630513191E0,1.260419369E0,1.537986755E0
1.609819635E0,9.659226418E0,1.246660590E0,1.561915040E0
1.612201198E0,9.630513191E0,1.256231904E0,1.571486235E0
1.614582760E0,9.640084267E0,1.256231904E0,1.595414519E0
1.616964323E0,9.640084267E0,1.261017561E0,1.633699656E0
1.619345885E0,9.644869804E0,1.237687469E0,1.638485312E0
1.621727448E0,9.644869804E0,1.256830096E0,1.671984792E0
1.624109010E0,9.640084267E0,1.256830096E0,1.691725612E0
1.626490573E0,9.644869804E0,1.271187067E0,1.710868239E0
1.628872135E0,9.640084267E0,1.275972724E0,1.701296926E0
1.631253698E0,9.625727654E0,1.275374413E0,1.662413478E0
1.633635260E0,9.625128746E0,1.284945726E0,1.609771490E0
1.636016823E0,9.601201057E0,1.293918848E0,1.523629785E0
1.638398385E0,9.591629982E0,1.278963685E0,1.461416483E0
1.640779948E0,9.577272415E0,1.278963685E0,1.423131227E0
1.643161510E0,9.553344727E0,1.277767301E0,1.341775298E0
1.645543125E0,9.533603668E0,1.282552958E0,1.269990563E0
1.647924687E0,9.528818130E0,1.267597795E0,1.231705427E0
1.650306198E0,9.538389206E0,1.262812138E0,1.212562919E0
1.652687760E0,9.510273933E0,1.262812138E0,1.207777262E0
1.655069375E0,9.544371605E0,1.248455167E0,1.193420291E0
1.657450937E0,9.524630547E0,1.234098315E0,1.193420291E0
1.659832500E0,9.553942680E0,1.210768223E0,1.222732425E0
1.662214062E0,9.597013474E0,1.206580877E0,1.222732425E0
1.664595625E0,9.597013474E0,1.201795220E0,1.241874933E0
1.666977187E0,9.626325607E0,1.173081279E0,1.261017561E0
1.669358750E0,9.640682220E0,1.144965649E0,1.313659668E0
1.671740312E0,9.650852203E0,1.121037364E0,1.323230863E0
1.674121875E0,9.674779892E0,1.112064362E0,1.351944804E0
1.676503437E0,9.665208817E0,1.112064362E0,1.390229940E0
1.678885000E0,9.674779892E0,1.112662554E0,1.423729420E0
1.681266562E0,9.689137459E0,1.083948612E0,1.442872047E0
1.683648125E0,9.669994354E0,1.088734269E0,1.452443361E0
1.686029687E0,9.679565430E0,1.098305583E0,1.476371527E0
1.688411250E0,9.693922997E0,1.079162955E0,1.462014675E0
1.690792812E0,9.713663101E0,1.051047325E0,1.462612867E0
1.693174375E0,9.723235130E0,1.055832982E0,1.476969719E0
1.695555937E0,9.732806206E0,1.060618639E0,1.467398524E0
1.697937500E0,9.742377281E0,1.065404296E0,1.462014675E0
1.700319062E0,9.736993790E0,1.070189953E0,1.447657704E0
1.702700625E0,9.732208252E0,1.070189953E0,1.433300734E0
1.705082187E0,9.722636223E0,1.079761267E0,1.428515077E0
1.707463750E0,9.704092026E0,1.069591761E0,1.399801254E0
1.709845312E0,9.698708534E0,1.074377418E0,1.385444283E0
1.712226875E0,9.684351921E0,1.097707391E0,1.361516118E0
1.714608437E0,9.669994354E0,1.102493048E0,1.332802176E0
1.716990000E0,9.669994354E0,1.102493048E0,1.304088354E0
1.719371562E0,9.684351921E0,1.097707391E0,1.241874933E0
1.721753125E0,9.669994354E0,1.082752228E0,1.227517962E0
1.724134687E0,9.679565430E0,1.087537885E0,1.208375454E0
1.726516250E0,9.669994354E0,1.087537885E0,1.194018483E0
1.728897812E0,9.674779892E0,1.077966571E0,1.189232826E0
1.731279375E0,9.717850685E0,1.063609719E0,1.136590719E0
1.733660937E0,9.751350403E0,1.054636598E0,1.131805062E0
1.736042500E0,9.751350403E0,1.064207911E0,1.150947690E0
1.738424062E0,9.756135941E0,1.060020447E0,1.198804140E0
1.740805625E0,9.775279045E0,1.083948612E0,1.203589797E0
1.743187187E0,9.799206734E0,1.079761267E0,1.227517962E0
1.745568802E0,9.799206734E0,1.070189953E0,1.246660590E0
1.747950365E0,9.818349838E0,1.094118118E0,1.275374413E0
1.750331927E0,9.837491989E0,1.094716311E0,1.332802176E0
1.752713490E0,9.846465111E0,1.099501967E0,1.328016520E0
1.755095000E0,9.865608215E0,1.095314622E0,1.332802176E0
1.757476615E0,9.899106979E0,1.100100160E0,1.342373490E0
1.759858177E0,9.908679008E0,1.095314622E0,1.351944804E0
1.762239740E0,9.909276962E0,1.080957651E0,1.347159147E0
1.764621302E0,9.909276962E0,1.071386337E0,1.342373490E0
1.767002865E0,9.909276962E0,1.085743308E0,1.347159147E0
1.769384427E0,9.899705887E0,1.076171994E0,1.347159147E0
1.771765990E0,9.866206169E0,1.066600680E0,1.342373490E0
1.774147552E0,9.875777245E0,1.057029366E0,1.323230863E0
1.776529115E0,9.861420631E0,1.042074203E0,1.308874011E0
1.778910677E0,9.833304405E0,1.042074203E0,1.295115232E0
1.781292240E0,9.809376717E0,1.022333503E0,1.271187067E0
1.783673802E0,9.790233612E0,1.046261668E0,1.271187067E0
1.786055365E0,9.742377281E0,1.045663476E0,1.261615753E0
1.788436927E0,9.718449593E0,1.035493970E0,1.242473125E0
1.790818490E0,9.689735413E0,1.034895778E0,1.223330617E0
1.793200052E0,9.675378799E0,1.025324464E0,1.228116274E0
1.795581615E0,9.656235695E0,1.015753269E0,1.208973646E0
1.797963177E0,9.637691498E0,1.006181955E0,1.218544960E0
1.800344740E0,9.623334885E0,1.000798106E0,1.208973646E0
1.802726302E0,9.618548393E0,1.010369420E0,1.208973646E0
1.805107865E0,9.608977318E0,1.005583763E0,1.213759303E0
1.807489427E0,9.632308006E0,1.024726272E0,1.194616675E0
1.809870990E0,9.608977318E0,1.010369420E0,1.204187989E0
1.812252552E0,9.613762856E0,1.015154958E0,1.208973646E0
1.814634115E0,9.627521515E0,1.019940615E0,1.185045362E0
1.817015677E0,9.646664619E0,1.024726272E0,1.185045362E0
1.819397240E0,9.651450157E0,1.030110121E0,1.194616675E0
1.821778802E0,9.675378799E0,1.015753269E0,1.180259824E0
1.824160365E0,9.689735413E0,1.015753269E0,1.170688510E0
1.826541927E0,9.704092026E0,1.015753269E0,1.175474167E0
1.828923490E0,9.718449593E0,1.021137118E0,1.180259824E0
1.831305104E0,9.728020668E0,1.021137118E0,1.194616675E0
1.833686615E0,9.751948357E0,1.007378340E0,1.213759303E0
1.836068229E0,9.761520386E0,1.016949654E0,1.223330617E0
1.838449792E0,9.780662537E0,1.007378340E0,1.247258782E0
1.840831354E0,9.795019150E0,1.017547846E0,1.242473125E0
1.843212917E0,9.809376717E0,1.012762189E0,1.252044439E0
1.845594479E0,9.833304405E0,1.017547846E0,1.266401410E0
1.847976042E0,9.823733330E0,1.027119160E0,1.266401410E0
1.850357604E0,9.833304405E0,1.037288666E0,1.295115232E0
1.852739167E0,9.814162254E0,1.017547846E0,1.304686546E0
1.855120729E0,9.814162254E0,1.036690354E0,1.285543919E0
1.857502292E0,9.814162254E0,1.027119160E0,1.275972724E0
1.859883854E0,9.809376717E0,1.041476011E0,1.256830096E0
1.862265417E0,9.804591179E0,1.036690354E0,1.261615753E0
1.864646979E0,9.794421196E0,1.045663476E0,1.232901812E0
1.867028542E0,9.785448074E0,1.026520967E0,1.218544960E0
1.869410104E0,9.790233612E0,1.021735311E0,1.232901812E0
1.871791667E0,9.771091461E0,1.040877819E0,1.208973646E0
1.874173229E0,9.741779327E0,1.054636598E0,1.199402332E0
1.876554792E0,9.746564865E0,1.064207911E0,1.179661512E0
1.878936354E0,9.722636223E0,1.073779106E0,1.165304661E0
1.881317917E0,9.718449593E0,1.054038405E0,1.161117196E0
1.883699479E0,9.708279610E0,1.068395257E0,1.155733347E0
1.886081042E0,9.684351921E0,1.063609719E0,1.146760225E0
1.888462604E0,9.693922997E0,1.068395257E0,1.155733347E0
1.890844167E0,9.674779892E0,1.068395257E0,1.175474167E0
1.893225729E0,9.670592308E0,1.049252748E0,1.180259824E0
1.895607292E0,9.646066666E0,1.072582722E0,1.180259824E0
1.897988854E0,9.622735977E0,1.043868899E0,1.199402332E0
1.900370417E0,9.627521515E0,1.063011408E0,1.218544960E0
1.902751979E0,9.627521515E0,1.053440213E0,1.232901812E0
1.905133542E0,9.617950439E0,1.067797065E0,1.252044439E0
1.907515104E0,9.622735977E0,1.077368379E0,1.261615753E0
1.909896719E0,9.617352486E0,1.082752228E0,1.285543919E0
1.912278281E0,9.627521515E0,1.073180914E0,1.295115232E0
1.914659844E0,9.627521515E0,1.073180914E0,1.304686546E0
1.917041406E0,9.636494637E0,1.092323542E0,1.323230863E0
1.919422969E0,9.660423279E0,1.097707391E0,1.328016520E0
1.921804531E0,9.674779892E0,1.097707391E0,1.332802176E0
1.924186094E0,9.684351921E0,1.116850019E0,1.342373490E0
1.926567656E0,9.684351921E0,1.107278705E0,1.337587833E0
1.928949219E0,9.698708534E0,1.116850019E0,1.332802176E0
1.931330781E0,9.702896118E0,1.126421213E0,1.328016520E0
1.933712344E0,9.702896118E0,1.140778184E0,1.328016520E0
1.936093906E0,9.693324089E0,1.135992527E0,1.328016520E0
1.938475469E0,9.698110580E0,1.135992527E0,1.308874011E0
1.940857031E0,9.683753014E0,1.140778184E0,1.308874011E0
1.943238594E0,9.698110580E0,1.131206870E0,1.313659668E0
1.945620156E0,9.678967476E0,1.131206870E0,1.308874011E0
1.948001719E0,9.678967476E0,1.155135155E0,1.294517040E0
1.950383281E0,9.689137459E0,1.116850019E0,1.299302697E0
1.952764844E0,9.678967476E0,1.140778184E0,1.299302697E0
1.955146406E0,9.678967476E0,1.135992527E0,1.313659668E0
1.957527969E0,9.655039787E0,1.140179992E0,1.304088354E0
1.959909531E0,9.655637741E0,1.130608678E0,1.328016520E0
1.962291094E0,9.669994354E0,1.116850019E0,1.328016520E0
1.964672656E0,9.665208817E0,1.112064362E0,1.337587833E0
1.967054219E0,9.669994354E0,1.121635556E0,1.323230863E0
1.969435781E0,9.689137459E0,1.112064362E0,1.342373490E0
1.971817344E0,9.693922997E0,1.112064362E0,1.342373490E0
1.974198906E0,9.693922997E0,1.093519926E0,1.375872970E0
1.976580469E0,9.698708534E0,1.093519926E0,1.395015597E0
1.978962031E0,9.703494072E0,1.074377418E0,1.390229940E0
1.981343594E0,9.704092026E0,1.060020447E0,1.400399446E0
1.983725156E0,9.704092026E0,1.026520967E0,1.409970760E0
1.986106771E0,9.708877563E0,1.051047325E0,1.429113269E0
1.988488333E0,9.704092026E0,1.016949654E0,1.419542074E0
1.990869896E0,9.708877563E0,1.027119160E0,1.424327731E0
1.993251458E0,9.699904442E0,1.012163997E0,1.429113269E0
1.995633021E0,9.723833084E0,1.003190875E0,1.443470240E0
1.998014583E0,9.690333366E0,1.016949654E0,1.438684583E0
2.000396146E0,9.699904442E0,1.012163997E0,1.429113269E0
2.002777708E0,9.689735413E0,1.036092162E0,1.419542074E0
2.005159271E0,9.680164337E0,1.036092162E0,1.405185103E0
2.007540833E0,9.684949875E0,1.036092162E0,1.386042476E0
2.009922396E0,9.675378799E0,1.036092162E0,1.386042476E0
2.012303958E0,9.646664619E0,1.045065284E0,1.366899967E0
2.014685521E0,9.646664619E0,1.035493970E0,1.366899967E0
2.017067083E0,9.637093544E0,1.040279627E0,1.366899967E0
2.019448646E0,9.632308006E0,1.044467092E0,1.342971683E0
2.021830208E0,9.632308006E0,1.034895778E0,1.342971683E0
2.024211771E0,9.627521515E0,1.049252748E0,1.333400369E0
2.026593333E0,9.632308006E0,1.044467092E0,1.338186026E0
2.028974896E0,9.622735977E0,1.054038405E0,1.328614831E0
2.031356458E0,9.632308006E0,1.068395257E0,1.338186026E0
2.033738021E0,9.637093544E0,1.059422255E0,1.362114310E0
2.036119583E0,9.632308006E0,1.049252748E0,1.347757339E0
2.038501146E0,9.646664619E0,1.064207911E0,1.366899967E0
2.040882708E0,9.656235695E0,1.068993568E0,1.371685624E0
2.043264271E0,9.670592308E0,1.073779106E0,1.381256819E0
2.045645833E0,9.669994354E0,1.083350420E0,1.390229940E0
2.048027396E0,9.679565430E0,1.093519926E0,1.399801254E0
2.050409010E0,9.689137459E0,1.093519926E0,1.409372568E0
2.052790573E0,9.723235130E0,1.064806104E0,1.390828133E0
2.055172135E0,9.717850685E0,1.074377418E0,1.409372568E0
2.057553646E0,9.708279610E0,1.074377418E0,1.414158225E0
2.059935260E0,9.684351921E0,1.088734269E0,1.423729420E0
2.062316823E0,9.698708534E0,1.089332461E0,1.466800332E0
2.064698385E0,9.693922997E0,1.083948612E0,1.438086390E0
2.067079948E0,9.689735413E0,1.055234790E0,1.409970760E0
2.069461510E0,9.699306488E0,1.055234790E0,1.400399446E0
2.071843073E0,9.684949875E0,1.064806104E0,1.405185103E0
2.074224635E0,9.674779892E0,1.083350420E0,1.385444283E0
2.076606198E0,9.665806770E0,1.059422255E0,1.381256819E0
2.078987760E0,9.651450157E0,1.073779106E0,1.371685624E0
2.081369323E0,9.637093544E0,1.078564763E0,1.362114310E0
2.083750885E0,9.608379364E0,1.077966571E0,1.362114310E0
2.086132448E0,9.612566948E0,1.087537885E0,1.375872970E0
2.088514010E0,9.598209381E0,1.092323542E0,1.371087432E0
2.090895573E0,9.598209381E0,1.092323542E0,1.356730461E0
2.093277135E0,9.598209381E0,1.101894855E0,1.356730461E0
2.095658698E0,9.612566948E0,1.101894855E0,1.342373490E0
2.098040260E0,9.617352486E0,1.097109199E0,1.351944804E0
2.100421823E0,9.612566948E0,1.121037364E0,1.342373490E0
2.102803385E0,9.622138023E0,1.116251707E0,1.361516118E0
2.105184948E0,9.631709099E0,1.121037364E0,1.366301775E0
2.107566510E0,9.660423279E0,1.112064362E0,1.375872970E0
2.109948073E0,9.646066666E0,1.116850019E0,1.404586911E0
2.112329635E0,9.641280174E0,1.116850019E0,1.442872047E0
2.114711198E0,9.679565430E0,1.131805062E0,1.428515077E0
2.117092812E0,9.702896118E0,1.136590719E0,1.438086390E0
2.119474375E0,9.693324089E0,1.146162033E0,1.442872047E0
2.121855937E0,9.698708534E0,1.112662554E0,1.466800332E0
2.124237500E0,9.708279610E0,1.122832060E0,1.481157184E0
2.126619062E0,9.703494072E0,1.122832060E0,1.509871125E0
2.129000625E0,9.693922997E0,1.108475089E0,1.514656782E0
2.131382187E0,9.689137459E0,1.113260746E0,1.524227977E0
2.133763750E0,9.669994354E0,1.093519926E0,1.529013634E0
2.136145312E0,9.689137459E0,1.089332461E0,1.529013634E0
2.138526875E0,9.684949875E0,1.070189953E0,1.529611826E0
2.140908437E0,9.675378799E0,1.065404296E0,1.520040631E0
2.143290000E0,9.661021233E0,1.064806104E0,1.510469317E0
2.145671562E0,9.641879082E0,1.060020447E0,1.491326690E0
2.148053125E0,9.622735977E0,1.068993568E0,1.472184181E0
2.150434687E0,9.627521515E0,1.054636598E0,1.462612867E0
2.152816250E0,9.622735977E0,1.045065284E0,1.457827210E0
2.155197812E0,9.622735977E0,1.049850941E0,1.443470240E0
2.157579375E0,9.632308006E0,1.045065284E0,1.433898926E0
2.159960937E0,9.622735977E0,1.045065284E0,1.424327731E0
2.162342500E0,9.641879082E0,1.049850941E0,1.424327731E0
2.164724062E0,9.661021233E0,1.069591761E0,1.424327731E0
2.167105625E0,9.669994354E0,1.083948612E0,1.428515077E0
2.169487187E0,9.679565430E0,1.088734269E0,1.428515077E0
2.171868750E0,9.679565430E0,1.079162955E0,1.428515077E0
2.174250312E0,9.684351921E0,1.103091240E0,1.418943882E0
2.176631875E0,9.698708534E0,1.112662554E0,1.399801254E0
2.179013490E0,9.708279610E0,1.079162955E0,1.380658627E0
2.181395052E0,9.722636223E0,1.074377418E0,1.375872970E0
2.183776615E0,9.723235130E0,1.055234790E0,1.371685624E0
2.186158177E0,9.717850685E0,1.064806104E0,1.361516118E0
2.188539740E0,9.704092026E0,1.050449133E0,1.386042476E0
2.190921302E0,9.680164337E0,1.031306505E0,1.386042476E0
2.193302865E0,9.675378799E0,1.021735311E0,1.386042476E0
2.195684427E0,9.666405678E0,9.978070259E-1,1.400399446E0
2.198065990E0,9.671191216E0,9.978070259E-1,1.409970760E0
2.200447552E0,9.647262573E0,9.882357717E-1,1.448255897E0
2.202829115E0,9.642477036E0,9.786644578E-1,1.453041553E0
2.205210677E0,9.652048111E0,9.738788009E-1,1.472184181E0
2.207592240E0,9.647262573E0,9.834501147E-1,1.486541033E0
2.209973802E0,9.633503914E0,9.595218897E-1,1.486541033E0
2.212355365E0,9.647860527E0,9.595218897E-1,1.510469317E0
2.214736927E0,9.647860527E0,9.643075466E-1,1.505683661E0
2.217118490E0,9.633503914E0,9.547362328E-1,1.500898004E0
2.219500052E0,9.647860527E0,9.690931439E-1,1.491326690E0
2.221881615E0,9.628120422E0,9.834501147E-1,1.486541033E0
2.224263177E0,9.623932838E0,9.690931439E-1,1.462612867E0
2.226644740E0,9.633503914E0,9.690931439E-1,1.448255897E0
2.229026302E0,9.643074989E0,9.595218897E-1,1.438684583E0
2.231407865E0,9.652647018E0,9.595218897E-1,1.419542074E0
2.233789427E0,9.643074989E0,9.541380405E-1,1.395613790E0
2.236170990E0,9.652647018E0,9.547362328E-1,1.390828133E0
2.238552604E0,9.671789169E0,9.547362328E-1,1.371685624E0
2.240934167E0,9.667003632E0,9.547362328E-1,1.390828133E0
2.243315729E0,9.676574707E0,9.499505758E-1,1.400399446E0
2.245697292E0,9.676574707E0,9.547362328E-1,1.405185103E0
2.248078854E0,9.662218094E0,9.547362328E-1,1.419542074E0
2.250460417E0,9.676574707E0,9.451649189E-1,1.448255897E0
2.252841979E0,9.699904442E0,9.649057388E-1,1.476969719E0
2.255223542E0,9.709476471E0,9.696913958E-1,1.505683661E0
2.257605104E0,9.719047546E0,9.750752449E-1,1.539183140E0
2.259986667E0,9.728618622E0,9.655039310E-1,1.567897081E0
2.262368229E0,9.742975235E0,9.804590940E-1,1.601396561E0
2.264749792E0,9.757332802E0,9.804590940E-1,1.625324726E0
2.267131354E0,9.757332802E0,9.852447510E-1,1.630110383E0
2.269512917E0,9.757332802E0,9.900303483E-1,1.625324726E0
2.271894479E0,9.747760773E0,1.004387259E0,1.582253933E0
2.274276042E0,9.742975235E0,9.990034699E-1,1.534397483E0
2.276657604E0,9.723833084E0,9.942178130E-1,1.515254974E0
2.279039167E0,9.695118904E0,1.003190875E0,1.433898926E0
2.281420729E0,9.708877563E0,1.012163997E0,1.386042476E0
2.283802292E0,9.695118904E0,1.007378340E0,1.376471281E0
2.286183854E0,9.714262009E0,1.007378340E0,1.362114310E0
2.288565417E0,9.699306488E0,1.012163997E0,1.352542996E0
2.290946979E0,9.709476471E0,9.930213690E-1,1.371685624E0
2.293328542E0,9.718449593E0,1.012762189E0,1.386042476E0
2.295710156E0,9.718449593E0,1.022333503E0,1.405185103E0
2.298091719E0,9.723235130E0,1.036690354E0,1.429113269E0
2.300473281E0,9.728020668E0,1.022333503E0,1.448255897E0
2.302854844E0,9.723235130E0,1.027119160E0,1.476969719E0
2.305236406E0,9.713663101E0,1.022333503E0,1.462612867E0
2.307617969E0,9.713663101E0,1.022333503E0,1.481755376E0
2.309999531E0,9.694520950E0,1.022333503E0,1.476969719E0
2.312381094E0,9.675976753E0,1.017547846E0,1.481755376E0
2.314762656E0,9.671191216E0,1.021735311E0,1.472184181E0
2.317144219E0,9.652048111E0,9.930213690E-1,1.481755376E0
2.319525781E0,9.637691498E0,9.978070259E-1,1.467398524E0
2.321907344E0,9.623334885E0,9.972088337E-1,1.448255897E0
2.324288906E0,9.609575272E0,9.589236975E-1,1.438684583E0
2.326670469E0,9.590433121E0,9.589236975E-1,1.444068432E0
2.329052031E0,9.585647583E0,9.541380405E-1,1.439282775E0
2.331433594E0,9.580862045E0,9.397810698E-1,1.453639746E0
2.333815156E0,9.566504478E0,9.302098155E-1,1.463211060E0
2.336196719E0,9.533005714E0,9.248259664E-1,1.477568030E0
2.338578281E0,9.547362328E0,9.439685345E-1,1.472782373E0
2.340959844E0,9.542576790E0,9.439685345E-1,1.463211060E0
2.343341406E0,9.522835732E0,9.391828775E-1,1.482353687E0
2.345722969E0,9.543174744E0,9.248259664E-1,1.467996716E0
2.348104583E0,9.566504478E0,9.296116233E-1,1.444068432E0
2.350486146E0,9.590433121E0,9.254241586E-1,1.453639746E0
2.352867708E0,9.600004196E0,9.349954724E-1,1.463211060E0
2.355249271E0,9.623932838E0,9.403793216E-1,1.477568030E0
2.357630833E0,9.619147301E0,9.451649189E-1,1.501496196E0
2.360012396E0,9.633503914E0,9.403793216E-1,1.511067510E0
2.362393958E0,9.638289452E0,9.451649189E-1,1.506281853E0
2.364775521E0,9.652647018E0,9.361918569E-1,1.511067510E0
2.367157083E0,9.652647018E0,9.547362328E-1,1.510469317E0
2.369538646E0,9.667003632E0,9.314061999E-1,1.487139225E0
2.371920208E0,9.667003632E0,9.361918569E-1,1.482353687E0
2.374301771E0,9.681360245E0,9.314061999E-1,1.467996716E0
2.376683333E0,9.690931320E0,9.409775138E-1,1.444068432E0
2.379064896E0,9.710074425E0,9.314061999E-1,1.439282775E0
2.381446458E0,9.695717812E0,9.361918569E-1,1.434497118E0
2.383828021E0,9.710074425E0,9.170492887E-1,1.424925923E0
2.386209583E0,9.714859962E0,9.122636318E-1,1.434497118E0
2.388591146E0,9.734002113E0,9.026923180E-1,1.415354609E0
2.390972708E0,9.734002113E0,9.122636318E-1,1.424925923E0
2.393354271E0,9.743574142E0,8.985049129E-1,1.434497118E0
2.395735833E0,9.744172096E0,8.937192559E-1,1.415354609E0
2.398117396E0,9.748957634E0,8.745766878E-1,1.439282775E0
2.400498958E0,9.753743172E0,8.889335990E-1,1.448854089E0
2.402880573E0,9.744172096E0,8.937192559E-1,1.444068432E0
2.405262135E0,9.739386559E0,8.697910309E-1,1.453639746E0
2.407643698E0,9.753743172E0,8.889335990E-1,1.458425403E0
2.410025260E0,9.748957634E0,8.793623447E-1,1.444068432E0
2.412406823E0,9.758528709E0,8.745766878E-1,1.439282775E0
2.414788385E0,9.753743172E0,8.506484628E-1,1.424925923E0
2.417169948E0,9.744172096E0,8.458628058E-1,1.405783296E0
2.419551510E0,9.744172096E0,8.410771489E-1,1.415354609E0
2.421933073E0,9.729815483E0,8.404789567E-1,1.400997639E0
2.424314635E0,9.716055870E0,8.356932998E-1,1.410568953E0
2.426696198E0,9.706484795E0,8.261220455E-1,1.415354609E0
2.429077760E0,9.701699257E0,8.404789567E-1,1.405783296E0
2.431459323E0,9.687342644E0,8.309076428E-1,1.405783296E0
2.433840885E0,9.682557106E0,8.021938205E-1,1.411167145E0
2.436222448E0,9.696913719E0,8.117650747E-1,1.420140266E0
2.438604010E0,9.677771568E0,8.117650747E-1,1.425524116E0
2.440985573E0,9.682557106E0,8.117650747E-1,1.430309772E0
2.443367135E0,9.672985077E0,8.063812256E-1,1.406381488E0
2.445748698E0,9.682557106E0,8.021938205E-1,1.420738459E0
2.448130312E0,9.668199539E0,8.255237937E-1,1.424925923E0
2.450511823E0,9.672985077E0,8.255237937E-1,1.415354609E0
2.452893437E0,9.672985077E0,8.398807645E-1,1.400997639E0
2.455275000E0,9.668199539E0,8.350951076E-1,1.391426325E0
2.457656562E0,9.682557106E0,8.350951076E-1,1.396211982E0
2.460038125E0,9.672985077E0,8.255237937E-1,1.400997639E0
2.462419687E0,9.672985077E0,8.350951076E-1,1.410568953E0
2.464801250E0,9.682557106E0,8.159525394E-1,1.396211982E0
2.467182812E0,9.663414001E0,8.111668825E-1,1.411167145E0
2.469564375E0,9.663414001E0,8.111668825E-1,1.411167145E0
2.471945937E0,9.673583984E0,7.926225066E-1,1.425524116E0
2.474327500E0,9.653842926E0,8.015955687E-1,1.444666624E0
2.476709062E0,9.635298729E0,7.920243144E-1,1.444666624E0
2.479090625E0,9.620942116E0,7.920243144E-1,1.435095429E0
2.481472187E0,9.601799011E0,7.866404653E-1,1.415952802E0
2.483853750E0,9.592227936E0,7.770691514E-1,1.415952802E0
2.486235312E0,9.587442398E0,7.770691514E-1,1.406381488E0
2.488616875E0,9.568299294E0,7.956135273E-1,1.396810174E0
2.490998437E0,9.582656860E0,7.962117195E-1,1.382453322E0
2.493380000E0,9.558728218E0,7.956135273E-1,1.372882009E0
2.495761562E0,9.553344727E0,8.195417523E-1,1.368096352E0
2.498143125E0,9.568299294E0,8.051848412E-1,1.353739381E0
2.500524687E0,9.577272415E0,8.147560954E-1,1.372882009E0
2.502906250E0,9.596415520E0,8.297112584E-1,1.381855130E0
2.505287865E0,9.615557671E0,8.249256015E-1,1.392024517E0
2.507669427E0,9.649057388E0,8.255237937E-1,1.400997639E0
2.510050990E0,9.672985077E0,8.303094506E-1,1.424925923E0
2.512432552E0,9.716055870E0,8.213363886E-1,1.448854089E0
2.514814115E0,9.725627899E0,8.171489239E-1,1.472782373E0
2.517195677E0,9.759127617E0,8.081758618E-1,1.491924882E0
2.519577240E0,9.787840843E0,7.986045480E-1,1.520638824E0
2.521958802E0,9.816555023E0,7.896314859E-1,1.554736495E0
2.524340365E0,9.812367439E0,7.704889178E-1,1.593021631E0
2.526721927E0,9.865009308E0,7.615157962E-1,1.583450437E0
2.529103490E0,9.908080101E0,7.525427341E-1,1.583450437E0
2.531485052E0,9.922437668E0,7.292127013E-1,1.626521230E0
2.533866615E0,9.951150894E0,7.052844763E-1,1.631306887E0
2.536248177E0,9.956535339E0,6.819544435E-1,1.650449395E0
2.538629740E0,9.956535339E0,6.580262184E-1,1.660020709E0
2.541011302E0,9.980463028E0,6.442674994E-1,1.689332843E0
2.543392865E0,9.952347755E0,6.197410822E-1,1.709073544E0
2.545774479E0,9.957133293E0,5.964110494E-1,1.728216171E0
2.548155990E0,9.924231529E0,5.766702294E-1,1.742573142E0
2.550537604E0,9.895518303E0,5.670989752E-1,1.752144337E0
2.552919167E0,9.853045464E0,5.276173949E-1,1.752742529E0
2.555300729E0,9.809974670E0,5.078766346E-1,1.757528186E0
2.557682292E0,9.771689415E0,5.359922647E-1,1.747956991E0
2.560063854E0,9.734002113E0,5.168496966E-1,1.752742529E0
2.562445417E0,9.676574707E0,5.018945336E-1,1.747956991E0
2.564826979E0,9.662218094E0,4.923232496E-1,1.738385677E0
2.567208542E0,9.614959717E0,4.630111754E-1,1.719243050E0
2.569590104E0,9.567103386E0,4.767699242E-1,1.709671736E0
2.571971667E0,9.518648148E0,4.809573591E-1,1.719243050E0
2.574353229E0,9.489934921E0,5.042873621E-1,1.714457393E0
2.576734792E0,9.456435204E0,4.995017350E-1,1.704886079E0
2.579116354E0,9.442078590E0,5.084748268E-1,1.719243050E0
2.581497917E0,9.418149948E0,5.084748268E-1,1.690529227E0
2.583879479E0,9.398408890E0,5.365904570E-1,1.690529227E0
2.586261042E0,9.369695663E0,5.659025311E-1,1.685743570E0
2.588642604E0,9.355338097E0,5.659025311E-1,1.700100541E0
2.591024167E0,9.359525681E0,5.898307562E-1,1.700100541E0
2.593405781E0,9.369096756E0,6.281159520E-1,1.679761529E0
2.595787344E0,9.368498802E0,6.520441771E-1,1.694716692E0
2.598168906E0,9.382855415E0,6.711867452E-1,1.704287887E0
2.600550469E0,9.392427444E0,6.855437160E-1,1.728216171E0
2.602932031E0,9.410971642E0,7.004988194E-1,1.737787485E0
2.605313594E0,9.434899330E0,6.957131624E-1,1.742573142E0
2.607695156E0,9.449256897E0,7.100701332E-1,1.766501307E0
2.610076719E0,9.482755661E0,7.106683254E-1,1.790429592E0
2.612458281E0,9.501898766E0,7.016952634E-1,1.780858278E0
2.614839844E0,9.535398483E0,7.208378315E-1,1.800000787E0
2.617221406E0,9.550353050E0,7.166503668E-1,1.804786444E0
2.619602969E0,9.574281693E0,7.214360237E-1,1.828116536E0
2.621984531E0,9.583254814E0,7.310073376E-1,1.818545222E0
2.624366094E0,9.597611427E0,7.405785918E-1,1.818545222E0
2.626747656E0,9.607182503E0,7.268198729E-1,1.808973908E0
2.629129219E0,9.635896683E0,7.459624410E-1,1.828116536E0
2.631510781E0,9.664610863E0,7.561319470E-1,1.818545222E0
2.633892344E0,9.668798447E0,7.698906660E-1,1.789831281E0
2.636273906E0,9.678369522E0,7.704889178E-1,1.789831281E0
2.638655469E0,9.707083702E0,7.657032609E-1,1.789831281E0
2.641037031E0,9.702297211E0,7.800601721E-1,1.780260086E0
2.643418646E0,9.726225853E0,7.561319470E-1,1.765903115E0
2.645800208E0,9.740582466E0,7.657032609E-1,1.737189293E0
2.648181771E0,9.754940033E0,7.519445419E-1,1.737189293E0
2.650563333E0,9.731011391E0,7.609176040E-1,1.737189293E0
2.652944896E0,9.745368004E0,7.609176040E-1,1.713261008E0
2.655326458E0,9.745368004E0,7.704889178E-1,1.713261008E0
2.657708021E0,9.726225853E0,7.752745152E-1,1.703689694E0
2.660089583E0,9.735796928E0,7.752745152E-1,1.684547186E0
2.662471146E0,9.735796928E0,7.752745152E-1,1.669592023E0
2.664852708E0,9.725627899E0,8.081758618E-1,1.640878081E0
2.667234271E0,9.706484795E0,8.129615188E-1,1.645663738E0
2.669615833E0,9.711869240E0,7.890332937E-1,1.607378602E0
2.671997396E0,9.696913719E0,8.075776696E-1,1.593021631E0
2.674378958E0,9.687342644E0,8.123632669E-1,1.583450437E0
2.676760521E0,9.683155060E0,7.980063558E-1,1.569093466E0
2.679142083E0,9.678369522E0,7.932206988E-1,1.569093466E0
2.681523646E0,9.697511673E0,7.884350419E-1,1.549950838E0
2.683905208E0,9.692726135E0,7.932206988E-1,1.545165181E0
2.686286823E0,9.678369522E0,7.836494446E-1,1.559522152E0
2.688668385E0,9.683155060E0,7.788637877E-1,1.573879123E0
2.691049948E0,9.702297211E0,7.645068169E-1,1.573879123E0
2.693431510E0,9.707083702E0,7.459624410E-1,1.602592945E0
2.695813073E0,9.683753014E0,7.459624410E-1,1.631306887E0
2.698194635E0,9.702297211E0,7.459624410E-1,1.631306887E0
2.700576198E0,9.702896118E0,7.316055298E-1,1.660020709E0
2.702957760E0,9.698110580E0,7.028916478E-1,1.669592023E0
2.705339323E0,9.688538551E0,7.028916478E-1,1.679163337E0
2.707720885E0,9.665208817E0,6.741777658E-1,1.685145378E0
2.710102448E0,9.669994354E0,6.406782866E-1,1.685145378E0
2.712484010E0,9.641879082E0,6.358926296E-1,1.689931035E0
2.714865573E0,9.613164902E0,6.209374666E-1,1.679761529E0
2.717247135E0,9.584450722E0,6.155536175E-1,1.670190215E0
2.719628698E0,9.561120987E0,5.868397355E-1,1.660618901E0
2.722010260E0,9.536594391E0,5.862415433E-1,1.651645780E0
2.724391823E0,9.503094673E0,5.569294691E-1,1.622931957E0
2.726773437E0,9.489336014E0,5.467599630E-1,1.599003673E0
2.729155000E0,9.465408325E0,5.228317380E-1,1.594218135E0
2.731536562E0,9.441479683E0,5.126622319E-1,1.560718536E0
2.733918125E0,9.427123070E0,5.174478889E-1,1.555932879E0
2.736299687E0,9.407979965E0,5.168496966E-1,1.546361685E0
2.738681250E0,9.412766457E0,5.359922647E-1,1.508076429E0
2.741062812E0,9.407979965E0,5.359922647E-1,1.493719578E0
2.743444375E0,9.398408890E0,5.407779217E-1,1.484148264E0
2.745825937E0,9.417551994E0,5.359922647E-1,1.503290772E0
2.748207500E0,9.422337532E0,5.407779217E-1,1.498505235E0
2.750589062E0,9.446265221E0,5.318048596E-1,1.498505235E0
2.752970625E0,9.464810371E0,5.509474277E-1,1.503290772E0
2.755352187E0,9.483952522E0,5.754738450E-1,1.493719578E0
2.757733750E0,9.507881165E0,5.760720372E-1,1.522433400E0
2.760115312E0,9.555737495E0,6.005984545E-1,1.531406522E0
2.762496875E0,9.570094109E0,6.245267391E-1,1.497906923E0
2.764878437E0,9.613164902E0,6.155536175E-1,1.512263894E0
2.767260000E0,9.632308006E0,6.346961856E-1,1.521835208E0
2.769641615E0,9.669994354E0,6.640082598E-1,1.531406522E0
2.772023177E0,9.674779892E0,6.544370055E-1,1.526620865E0
2.774404740E0,9.717850685E0,6.741777658E-1,1.521835208E0
2.776786302E0,9.717252731E0,6.975077987E-1,1.540379524E0
2.779167865E0,9.750752449E0,6.933203340E-1,1.521237016E0
2.781549427E0,9.765109062E0,7.028916478E-1,1.516451359E0
2.783930990E0,9.755537987E0,7.076773047E-1,1.482951880E0
2.786312552E0,9.755537987E0,7.172485590E-1,1.478166223E0
2.788694115E0,9.745368004E0,7.310073376E-1,1.463809252E0
2.791075677E0,9.745368004E0,7.453642488E-1,1.425524116E0
2.793457240E0,9.725627899E0,7.830511928E-1,1.401595831E0
2.795838802E0,9.716055870E0,8.021938205E-1,1.382453322E0
2.798220365E0,9.677771568E0,8.207381964E-1,1.367498159E0
2.800601927E0,9.653842926E0,8.303094506E-1,1.348355532E0
2.802983490E0,9.634101868E0,8.536394835E-1,1.348355532E0
2.805365052E0,9.623932838E0,9.110672474E-1,1.338784218E0
2.807746615E0,9.591031075E0,9.152546525E-1,1.329213023E0
2.810128177E0,9.556933403E0,9.481559992E-1,1.310070395E0
2.812509740E0,9.527621269E0,9.720842242E-1,1.319043517E0
2.814891354E0,9.498908043E0,9.858429432E-1,1.299900889E0
2.817272917E0,9.483952522E0,9.954141974E-1,1.309472203E0
2.819654479E0,9.479764938E0,9.858429432E-1,1.290329576E0
2.822036042E0,9.455238342E0,1.033101201E0,1.290329576E0
2.824417604E0,9.459425926E0,1.057029366E0,1.290329576E0
2.826799167E0,9.464211464E0,1.061815023E0,1.285543919E0
2.829180729E0,9.468997002E0,1.100100160E0,1.275972724E0
2.831562292E0,9.473783493E0,1.100100160E0,1.280758262E0
2.833943854E0,9.487542152E0,1.114457130E0,1.280160069E0
2.836325417E0,9.511469841E0,1.134197950E0,1.294517040E0
2.838706979E0,9.525827408E0,1.153340459E0,1.304088354E0
2.841088542E0,9.559326172E0,1.168295622E0,1.308874011E0
2.843470104E0,9.573683739E0,1.173081279E0,1.313659668E0
2.845851667E0,9.602396965E0,1.197607756E0,1.356730461E0
2.848233229E0,9.640084267E0,1.216750264E0,1.375274777E0
2.850614844E0,9.668798447E0,1.202991605E0,1.361516118E0
2.852996406E0,9.702297211E0,1.194018483E0,1.375872970E0
2.855377969E0,9.717252731E0,1.174875975E0,1.385444283E0
2.857759531E0,9.750752449E0,1.165902853E0,1.404586911E0
2.860141094E0,9.789037704E0,1.166501045E0,1.414158225E0
2.862522656E0,9.789037704E0,1.137787223E0,1.404586911E0
2.864904219E0,9.832108498E0,1.113858938E0,1.380658627E0
2.867285781E0,9.879964828E0,1.104885817E0,1.385444283E0
2.869667344E0,9.914062500E0,1.076770186E0,1.366301775E0
2.872048906E0,9.928419113E0,1.062413216E0,1.361516118E0
2.874430469E0,9.961918831E0,1.028913736E0,1.332802176E0
2.876812031E0,9.995418549E0,1.019940615E0,1.328016520E0
2.879193594E0,1.001515961E1,9.960124493E-1,1.304686546E0
2.881575156E0,1.002951622E1,9.918249846E-1,1.319043517E0
2.883956719E0,1.005344391E1,9.726824164E-1,1.295115232E0
2.886338281E0,1.005344391E1,9.678967595E-1,1.304686546E0
2.888719844E0,1.005823040E1,9.822536707E-1,1.309472203E0
2.891101406E0,1.008156013E1,1.006181955E0,1.299302697E0
2.893482969E0,1.007198906E1,1.034895778E0,1.289731383E0
2.895864583E0,1.005224800E1,1.068395257E0,1.294517040E0
2.898246146E0,1.004686451E1,1.121037364E0,1.304088354E0
2.900627708E0,1.002293587E1,1.149153113E0,1.298704505E0
2.903009271E0,1.000379372E1,1.158724308E0,1.308275819E0
2.905390833E0,9.993623734E0,1.186840057E0,1.303490162E0
2.907772396E0,9.955338478E0,1.205982566E0,1.317847013E0
2.910153958E0,9.931410789E0,1.224527001E0,1.279561877E0
2.912535521E0,9.859625816E0,1.247856975E0,1.260419369E0
2.914917083E0,9.825528145E0,1.271187067E0,1.246062398E0
2.917298646E0,9.772886276E0,1.284945726E0,1.217348576E0
2.919680208E0,9.701101303E0,1.312463164E0,1.164706469E0
2.922061771E0,9.634101868E0,1.335195065E0,1.154536963E0
2.924443333E0,9.571888924E0,1.344168067E0,1.106680512E0
2.926824896E0,9.509077072E0,1.367498159E0,1.116251707E0
2.929206510E0,9.451051712E0,1.386042476E0,1.106680512E0
2.931588073E0,9.403194427E0,1.418345571E0,1.077966571E0
2.933969635E0,9.340981483E0,1.403390527E0,1.097109199E0
2.936351198E0,9.274580956E0,1.402792215E0,1.116251707E0
2.938732760E0,9.231510162E0,1.393221021E0,1.107278705E0
2.941114323E0,9.202795982E0,1.402194023E0,1.083350420E0
2.943495885E0,9.178867340E0,1.406381488E0,1.059422255E0
2.945877448E0,9.126225471E0,1.420140266E0,1.016351461E0
2.948259010E0,9.087940216E0,1.419542074E0,9.445667267E-1
2.950640573E0,9.073583603E0,1.404586911E0,9.062815905E-1
2.953022135E0,9.068798065E0,1.395015597E0,8.967102766E-1
2.955403698E0,9.035896301E0,1.375872970E0,9.254241586E-1
2.957785260E0,9.007183075E0,1.347159147E0,9.924231768E-1
2.960166823E0,9.016754150E0,1.361516118E0,1.054636598E0
2.962548385E0,9.026325226E0,1.352542996E0,1.145563841E0
2.964929948E0,9.026923180E0,1.329213023E0,1.222134113E0
2.967311510E0,9.041280746E0,1.344168067E0,1.308275819E0
2.969693125E0,9.060422897E0,1.354337573E0,1.403988719E0
2.972074687E0,9.089137077E0,1.340578914E0,1.475773335E0
2.974456250E0,9.122636795E0,1.331605792E0,1.537986755E0
2.976837812E0,9.160921097E0,1.346560955E0,1.595414519E0
2.979219375E0,9.175278664E0,1.347159147E0,1.657627940E0
2.981600937E0,9.174679756E0,1.375872970E0,1.696511269E0
2.983982500E0,9.189037323E0,1.386042476E0,1.753939033E0
2.986364062E0,9.207581520E0,1.429113269E0,1.787438512E0
2.988745625E0,9.221340179E0,1.482353687E0,1.791625977E0
2.991127187E0,9.225527763E0,1.539183140E0,1.796411633E0
2.993508750E0,9.244071960E0,1.592423439E0,1.800599098E0
2.995890312E0,9.258428574E0,1.630708575E0,1.810170293E0
2.998271875E0,9.257830620E0,1.649851203E0,1.824527264E0
3.000653437E0,9.290732384E0,1.694118381E0,1.838286042E0
3.003035000E0,9.305088997E0,1.703689694E0,1.866999865E0
3.005416615E0,9.309874535E0,1.722832322E0,1.871785522E0
3.007798177E0,9.324232101E0,1.723430514E0,1.890928149E0
3.010179740E0,9.352347374E0,1.766501307E0,1.924427629E0
3.012561302E0,9.370891571E0,1.819741607E0,1.962114573E0
3.014942865E0,9.409176826E0,1.829911113E0,1.990828395E0
3.017324427E0,9.447462082E0,1.811366796E0,2.024327993E0
3.019705990E0,9.466604233E0,1.825723648E0,2.048256159E0
3.022087552E0,9.490532875E0,1.816750646E0,2.076970100E0
3.024469115E0,9.528818130E0,1.783849239E0,2.086541414E0
3.026850677E0,9.558130264E0,1.774278045E0,2.072184324E0
3.029232240E0,9.596415520E0,1.774876237E0,2.072184324E0
3.031613802E0,9.635298729E0,1.732403636E0,2.091925144E0
3.033995365E0,9.692726135E0,1.709073544E0,2.087139606E0
3.036376927E0,9.707681656E0,1.679761529E0,2.087139606E0
3.038758490E0,9.726823807E0,1.674975872E0,2.087139606E0
3.041140052E0,9.765109062E0,1.642074585E0,2.058425665E0
3.043521667E0,9.789037704E0,1.613360643E0,2.024926186E0
3.045903229E0,9.842277527E0,1.594816327E0,2.020140409E0
3.048284792E0,9.861420631E0,1.571486235E0,2.006381750E0
3.050666354E0,9.914660454E0,1.524227977E0,2.025524378E0
3.053047917E0,9.933803558E0,1.524227977E0,2.039881229E0
3.055429479E0,9.957731247E0,1.491326690E0,2.035095692E0
3.057811042E0,9.963115692E0,1.433898926E0,2.063809633E0
3.060192604E0,1.000139999E1,1.415354609E0,2.093121529E0
3.062574167E0,1.001635551E1,1.382453322E0,2.126621008E0
3.064955729E0,1.003131104E1,1.344168067E0,2.140978098E0
3.067337292E0,1.004148006E1,1.287338614E0,2.160718918E0
3.069718854E0,1.007019424E1,1.244267821E0,2.155933142E0
3.072100417E0,1.007557774E1,1.192223907E0,2.170290232E0
3.074481979E0,1.007139015E1,1.149153113E0,2.170888424E0
3.076863542E0,1.009591675E1,1.053440213E0,2.170888424E0
3.079245104E0,1.010130119E1,9.966106415E-1,2.147558212E0
3.081626667E0,1.011147022E1,9.583254457E-1,2.133201361E0
3.084008281E0,1.010728264E1,8.913264275E-1,2.104487419E0
3.086389844E0,1.011745262E1,8.195417523E-1,2.081157446E0
3.088771406E0,1.012762165E1,7.764709592E-1,2.085943222E0
3.091152969E0,1.012403297E1,6.903293133E-1,2.076970100E0
3.093534531E0,1.014855862E1,6.191428304E-1,2.076970100E0
3.095916094E0,1.010548782E1,6.137589812E-1,2.067996979E0
3.098297656E0,1.008215809E1,5.898307562E-1,2.067996979E0
3.100679219E0,1.005823040E1,5.940182209E-1,2.082353830E0
3.103060781E0,1.007737255E1,5.509474277E-1,2.067996979E0
3.105442344E0,1.006301594E1,5.748756528E-1,2.063211441E0
3.107823906E0,1.001515961E1,5.934200287E-1,2.048854351E0
3.110205469E0,9.995418549E0,6.173482537E-1,2.029711723E0
3.112587031E0,9.985847473E0,6.119644046E-1,2.015354872E0
3.114968594E0,9.951749802E0,6.783652306E-1,1.990828395E0
3.117350208E0,9.946963310E0,7.214360237E-1,1.966900229E0
3.119731771E0,9.922437668E0,7.495517135E-1,1.942971945E0
3.122113333E0,9.883553505E0,7.968099117E-1,1.913659930E0
3.124494896E0,9.883553505E0,8.303094506E-1,1.932802439E0
3.126876458E0,9.863813400E0,8.829515576E-1,1.899302959E0
3.129258021E0,9.848857880E0,9.302098155E-1,1.869990945E0
3.131639583E0,9.809974670E0,9.918249846E-1,1.879562140E0
3.134021146E0,9.761520386E0,1.063011408E0,1.874776483E0
3.136402708E0,9.732208252E0,1.134197950E0,1.883749604E0
3.138784271E0,9.683753014E0,1.191027522E0,1.864607096E0
3.141165833E0,9.620942116E0,1.238285661E0,1.878365755E0
3.143547396E0,9.586843491E0,1.299900889E0,1.878365755E0
3.145928958E0,9.553344727E0,1.323829174E0,1.873580098E0
3.148310573E0,9.509077072E0,1.399801254E0,1.872981906E0
3.150692083E0,9.470791817E0,1.423131227E0,1.887338877E0
3.153073698E0,9.436694145E0,1.465603828E0,1.882553220E0
3.155455260E0,9.403194427E0,1.456032634E0,1.896910191E0
3.157836823E0,9.360123634E0,1.484148264E0,1.925624013E0
3.160218385E0,9.312267303E0,1.517049551E0,1.920838356E0
3.162599948E0,9.263813019E0,1.578664780E0,1.934597135E0
3.164981510E0,9.234500885E0,1.597807288E0,1.963310957E0
3.167363073E0,9.214759827E0,1.659422517E0,1.987239242E0
3.169744635E0,9.176474571E0,1.707877159E0,1.981855392E0
3.172126198E0,9.151947975E0,1.755135417E0,1.981855392E0
3.174507760E0,9.113663673E0,1.788036704E0,1.996212244E0
3.176889323E0,9.089137077E0,1.802393675E0,2.024926186E0
3.179270885E0,9.089137077E0,1.840678811E0,2.024926186E0
3.181652448E0,9.065208435E0,1.845464468E0,2.048854351E0
3.184034010E0,9.041280746E0,1.864008784E0,2.072782516E0
3.186415625E0,9.046066284E0,1.864607096E0,2.091925144E0
3.188797135E0,9.036494255E0,1.859821439E0,2.111067772E0
3.191178750E0,9.036494255E0,1.864607096E0,2.096710920E0
3.193560312E0,9.041280746E0,1.864607096E0,2.115853310E0
3.195941875E0,9.036494255E0,1.869392633E0,2.120040894E0
3.198323437E0,9.055637360E0,1.864607096E0,2.125424623E0
3.200705000E0,9.046066284E0,1.859821439E0,2.120639086E0
3.203086562E0,9.050851822E0,1.845464468E0,2.111067772E0
3.205468125E0,9.055637360E0,1.831107497E0,2.111067772E0
3.207849687E0,9.074779510E0,1.831107497E0,2.082353830E0
3.210231250E0,9.074779510E0,1.831107497E0,2.063211441E0
3.212612812E0,9.060422897E0,1.850250125E0,2.053640127E0
3.214994375E0,9.069993973E0,1.845464468E0,2.039283037E0
3.217375937E0,9.084351540E0,1.835893154E0,2.020140409E0
3.219757552E0,9.079565048E0,1.802393675E0,1.996212244E0
3.222139115E0,9.065806389E0,1.773081541E0,1.977069736E0
3.224520677E0,9.080163956E0,1.749751568E0,1.967498422E0
3.226902240E0,9.070592880E0,1.744367719E0,1.967498422E0
3.229283802E0,9.085547447E0,1.716252089E0,1.948953986E0
3.231665365E0,9.075976372E0,1.696511269E0,1.934597135E0
3.234046927E0,9.085547447E0,1.706680775E0,1.925025821E0
3.236428490E0,9.095717430E0,1.663011789E0,1.901097536E0
3.238810052E0,9.100502968E0,1.643869162E0,1.886740685E0
3.241191615E0,9.110074043E0,1.615155339E0,1.872383714E0
3.243573177E0,9.120243073E0,1.596012712E0,1.848455548E0
3.245954740E0,9.134600639E0,1.562513232E0,1.839482427E0
3.248336302E0,9.139984131E0,1.538584948E0,1.834696770E0
3.250717865E0,9.178269386E0,1.520040631E0,1.839482427E0
3.253099427E0,9.197412491E0,1.505683661E0,1.834696770E0
3.255481042E0,9.216554642E0,1.496710539E0,1.834696770E0
3.257862604E0,9.250054359E0,1.477568030E0,1.844268084E0
3.260244167E0,9.250054359E0,1.487737536E0,1.868196249E0
3.262625729E0,9.283554077E0,1.473380566E0,1.896910191E0
3.265007292E0,9.297910690E0,1.478764415E0,1.901695848E0
3.267388854E0,9.308079720E0,1.459621787E0,1.916052699E0
3.269770417E0,9.332008362E0,1.460219979E0,1.925624013E0
3.272151979E0,9.365508080E0,1.427318692E0,1.963909149E0
3.274533542E0,9.394221306E0,1.417747378E0,2.006979942E0
3.276915104E0,9.422935486E0,1.442273855E0,2.030908108E0
3.279296667E0,9.442078590E0,1.418943882E0,2.026122570E0
3.281678229E0,9.461220741E0,1.438086390E0,2.050050735E0
3.284059792E0,9.465408325E0,1.471585870E0,2.045265198E0
3.286441354E0,9.483952522E0,1.500299811E0,2.021337032E0
3.288822969E0,9.494122505E0,1.485942841E0,1.987837434E0
3.291204531E0,9.488738060E0,1.514656782E0,1.978266120E0
3.293586094E0,9.488738060E0,1.514058471E0,1.939980984E0
3.295967656E0,9.493523598E0,1.499701619E0,1.892124534E0
3.298349219E0,9.493523598E0,1.490130305E0,1.849053741E0
3.300730781E0,9.479166985E0,1.518245935E0,1.829312921E0
3.303112344E0,9.460023880E0,1.513460279E0,1.786840320E0
3.305493906E0,9.440881729E0,1.498505235E0,1.743769526E0
3.307875469E0,9.412167549E0,1.488335729E0,1.719841242E0
3.310257031E0,9.369695663E0,1.482951880E0,1.691127419E0
3.312638594E0,9.360123634E0,1.459023595E0,1.657029629E0
3.315020156E0,9.360722542E0,1.411167145E0,1.637887120E0
3.317401719E0,9.356534958E0,1.368096352E0,1.638485312E0
3.319783281E0,9.332606316E0,1.334596872E0,1.633699656E0
3.322164844E0,9.337990761E0,1.310668588E0,1.643270969E0
3.324546458E0,9.328418732E0,1.286740422E0,1.676770449E0
3.326928021E0,9.333204269E0,1.281954765E0,1.676770449E0
3.329309583E0,9.352945328E0,1.263410330E0,1.682154298E0
3.331691146E0,9.362516403E0,1.249053478E0,1.730608940E0
3.334072708E0,9.372088432E0,1.244866014E0,1.773679733E0
3.336454271E0,9.357730865E0,1.220937729E0,1.811964989E0
3.338835833E0,9.362516403E0,1.235294700E0,1.855035782E0
3.341217396E0,9.372088432E0,1.226321578E0,1.893320918E0
3.343598958E0,9.372088432E0,1.235892892E0,1.936391711E0
3.345980521E0,9.376873970E0,1.259821177E0,1.945963025E0
3.348362083E0,9.372088432E0,1.259821177E0,1.974676847E0
3.350743646E0,9.381659508E0,1.255633712E0,1.998605132E0
3.353125208E0,9.385847092E0,1.289133191E0,2.021935225E0
3.355506823E0,9.395418167E0,1.293918848E0,2.026720762E0
3.357888385E0,9.400203705E0,1.327418327E0,2.041077614E0
3.360269948E0,9.385248184E0,1.356132269E0,2.050648928E0
3.362651510E0,9.390034676E0,1.370489120E0,2.050648928E0
3.365033073E0,9.370891571E0,1.389033556E0,2.050648928E0
3.367414635E0,9.390034676E0,1.394417405E0,2.026720762E0
3.369796198E0,9.394820213E0,1.384846091E0,2.007578135E0
3.372177760E0,9.384650230E0,1.417747378E0,2.002194405E0
3.374559323E0,9.389435768E0,1.408176184E0,1.987837434E0
3.376940885E0,9.403793335E0,1.413560033E0,1.983051777E0
3.379322448E0,9.389435768E0,1.432104349E0,1.949552298E0
3.381704010E0,9.399007797E0,1.436890006E0,1.939980984E0
3.384085573E0,9.394221306E0,1.446461320E0,1.925624013E0
3.386467187E0,9.388837814E0,1.456032634E0,1.916052699E0
3.388848750E0,9.407979965E0,1.451246977E0,1.896910191E0
3.391230312E0,9.407979965E0,1.460818172E0,1.887338877E0
3.393611875E0,9.407979965E0,1.456032634E0,1.901695848E0
3.395993437E0,9.407979965E0,1.475175142E0,1.901695848E0
3.398375000E0,9.403194427E0,1.465603828E0,1.920838356E0
3.400756562E0,9.412766457E0,1.460818172E0,1.930409670E0
3.403138125E0,9.388837814E0,1.494317770E0,1.954337835E0
3.405519687E0,9.393025398E0,1.523031592E0,1.987837434E0
3.407901250E0,9.369096756E0,1.551745534E0,2.006381750E0
3.410282812E0,9.383454323E0,1.570888042E0,2.044667006E0
3.412664375E0,9.401998520E0,1.590628862E0,2.068595171E0
3.415045937E0,9.406784058E0,1.614557028E0,2.135594130E0
3.417427500E0,9.420542717E0,1.658226132E0,2.169093609E0
3.419809115E0,9.449256897E0,1.682154298E0,2.216351986E0
3.422190677E0,9.491728783E0,1.707877159E0,2.273779631E0
3.424572240E0,9.534799576E0,1.694118381E0,2.307279348E0
3.426953802E0,9.573683739E0,1.713859200E0,2.350350142E0
3.429335365E0,9.607182503E0,1.690529227E0,2.402992249E0
3.431716927E0,9.635896683E0,1.680957913E0,2.460419893E0
3.434098490E0,9.674181938E0,1.681556106E0,2.508276224E0
3.436480052E0,9.698110580E0,1.667199135E0,2.532204628E0
3.438861615E0,9.713065147E0,1.658226132E0,2.556132793E0
3.441243177E0,9.731609344E0,1.667797327E0,2.560918331E0
3.443624740E0,9.717850685E0,1.663011789E0,2.570489645E0
3.446006302E0,9.713065147E0,1.639083505E0,2.546561480E0
3.448387865E0,9.689137459E0,1.633699656E0,2.527418852E0
3.450769479E0,9.684351921E0,1.633699656E0,2.489133835E0
3.453151042E0,9.669994354E0,1.623530149E0,2.437089920E0
3.455532604E0,9.636494637E0,1.627717614E0,2.379662037E0
3.457914167E0,9.593423843E0,1.631905079E0,2.331805706E0
3.460295729E0,9.564710617E0,1.621735573E0,2.264806747E0
3.462677292E0,9.550353050E0,1.611566067E0,2.178664923E0
3.465058854E0,9.521639824E0,1.610967875E0,2.135594130E0
3.467440417E0,9.492925644E0,1.610369682E0,2.087737799E0
3.469821979E0,9.488140106E0,1.600798368E0,2.039881229E0
3.472203542E0,9.445069313E0,1.614557028E0,2.011167526E0
3.474585104E0,9.454640388E0,1.557129383E0,1.948953986E0
3.476966667E0,9.474381447E0,1.518844128E0,1.939382792E0
3.479348229E0,9.479166985E0,1.499701619E0,1.939980984E0
3.481729792E0,9.498908043E0,1.433300734E0,1.959123492E0
3.484111406E0,9.513862610E0,1.428515077E0,1.973480463E0
3.486492969E0,9.533005714E0,1.376471281E0,2.002792597E0
3.488874531E0,9.553344727E0,1.362712502E0,2.021935225E0
3.491256094E0,9.577272415E0,1.343569875E0,2.060220242E0
3.493637656E0,9.625128746E0,1.339382529E0,2.084148407E0
3.496019219E0,9.649057388E0,1.339980721E0,2.117648125E0
3.498400781E0,9.696913719E0,1.350150228E0,2.136790514E0
3.500782344E0,9.759127617E0,1.327418327E0,2.165504456E0
3.503163906E0,9.811170578E0,1.337587833E0,2.198405743E0
3.505545469E0,9.878170013E0,1.338186026E0,2.212762833E0
3.507927031E0,9.930811882E0,1.353141189E0,2.212762833E0
3.510308594E0,9.993025780E0,1.334596872E0,2.246262312E0
3.512690208E0,1.006959629E1,1.326221943E0,2.255833626E0
3.515071771E0,1.006421185E1,1.368694544E0,2.227119684E0
3.517453333E0,1.012164021E1,1.374078393E0,2.222334146E0
3.519834896E0,1.015035343E1,1.355534077E0,2.241476536E0
3.522216458E0,1.017428207E1,1.336989641E0,2.246262312E0
3.524598021E0,1.018445110E1,1.289133191E0,2.227119684E0
3.526979583E0,1.020837975E1,1.269990563E0,2.198405743E0
3.529361146E0,1.021376324E1,1.241276741E0,2.160718918E0
3.531742708E0,1.020479012E1,1.164706469E0,2.179861546E0
3.534124271E0,1.018146038E1,1.107278705E0,2.199602127E0
3.536505833E0,1.016351414E1,1.030708313E0,2.223530531E0
3.538887396E0,1.014975548E1,9.445667267E-1,2.252842426E0
3.541268958E0,1.010668468E1,9.541380405E-1,2.305484533E0
3.543650573E0,1.004506969E1,9.056833982E-1,2.296511650E0
3.546032135E0,1.001276588E1,8.434699774E-1,2.358724833E0
3.548413698E0,9.960722923E0,7.615157962E-1,2.388036966E0
3.550795260E0,9.933204651E0,6.753742099E-1,2.411965132E0
3.553176823E0,9.900901794E0,5.748756528E-1,2.446063042E0
3.555558385E0,9.877572060E0,5.072783828E-1,2.480160713E0
3.557939948E0,9.878170013E0,4.833501875E-1,2.470589399E0
3.560321510E0,9.897911072E0,3.882354796E-1,2.471187592E0
3.562703073E0,9.946365356E0,3.122633696E-1,2.475973129E0
3.565084635E0,9.979865074E0,3.128615618E-1,2.485544443E0
3.567466198E0,1.002831936E1,2.650051117E-1,2.438286304E0
3.569847760E0,1.009053326E1,2.321037948E-1,2.366501570E0
3.572229323E0,1.013420200E1,1.746760458E-1,2.309073925E0
3.574610937E0,1.021496010E1,1.902294010E-1,2.280359983E0
3.576992500E0,1.026281643E1,1.902294010E-1,2.232503414E0
3.579374062E0,1.030110168E1,1.860419661E-1,2.194218397E0
3.581755625E0,1.036750221E1,2.482553422E-1,2.160120726E0
3.584137187E0,1.040459061E1,3.206382394E-1,2.145165443E0
3.586518750E0,1.043210888E1,4.211367965E-1,2.140379906E0
3.588900312E0,1.046919727E1,5.312066078E-1,2.154138565E0
3.591281875E0,1.050688457E1,6.185446382E-1,2.163111687E0
3.593663437E0,1.051525879E1,7.429714203E-1,2.162513494E0
3.596045000E0,1.054217815E1,8.721838593E-1,2.195414782E0
3.598426562E0,1.056490993E1,9.918249846E-1,2.199602127E0
3.600808177E0,1.058285618E1,1.121037364E0,2.208575249E0
3.603189740E0,1.058166027E1,1.197607756E0,2.212762833E0
3.605571302E0,1.059003448E1,1.307677627E0,2.217548370E0
3.607952865E0,1.058465099E1,1.374676585E0,2.188236237E0
3.610334427E0,1.060319519E1,1.436291814E0,2.121237278E0
3.612715990E0,1.061216831E1,1.498505235E0,2.039283037E0
3.615097552E0,1.062592697E1,1.560120344E0,1.991426587E0
3.617479115E0,1.061575794E1,1.588834286E0,1.904686809E0
3.619860677E0,1.066301632E1,1.636690736E0,1.832902193E0
3.622242240E0,1.066780186E1,1.669592023E0,1.761117458E0
3.624623802E0,1.071565819E1,1.694118381E0,1.678565025E0
3.627005365E0,1.073898792E1,1.722832322E0,1.645065546E0
3.629386927E0,1.079103184E1,1.761715651E0,1.592423439E0
3.631768490E0,1.083829021E1,1.795215130E0,1.567897081E0
3.634150104E0,1.086221886E1,1.829312921E0,1.548754454E0
3.636531667E0,1.091366386E1,1.881955028E0,1.519442320E0
3.638913229E0,1.095673466E1,1.916052699E0,1.509871125E0
3.641294792E0,1.101356411E1,1.954337835E0,1.466800332E0
3.643676354E0,1.104646587E1,1.993221283E0,1.413560033E0
3.646057917E0,1.107996559E1,2.007578135E0,1.370489120E0
3.648439479E0,1.112243748E1,2.017149448E0,1.317847013E0
3.650821042E0,1.116072273E1,2.026720762E0,1.255633712E0
3.653202604E0,1.121815109E1,1.989033818E0,1.226919770E0
3.655584167E0,1.126600742E1,1.965703845E0,1.174277663E0
3.657965729E0,1.130010509E1,1.913061738E0,1.141376376E0
3.660347344E0,1.134377384E1,1.875374794E0,1.098305583E0
3.662728906E0,1.139163017E1,1.847259045E0,1.093519926E0
3.665110469E0,1.139701462E1,1.799402595E0,1.050449133E0
3.667492031E0,1.141196918E1,1.741974831E0,1.022333503E0
3.669873594E0,1.141256714E1,1.679163337E0,1.027119160E0
3.672255156E0,1.140359497E1,1.631306887E0,1.013360381E0
3.674636719E0,1.136530972E1,1.587637782E0,9.894321561E-1
3.677018281E0,1.133779144E1,1.530210137E0,9.798609018E-1
3.679399844E0,1.127139091E1,1.467398524E0,9.996016622E-1
3.681781406E0,1.120499039E1,1.418943882E0,9.852447510E-1
3.684162969E0,1.109551907E1,1.360319614E0,9.810572863E-1
3.686544531E0,1.100100231E1,1.296909928E0,9.242277741E-1
3.688926146E0,1.087238789E1,1.261615753E0,8.572286963E-1
3.691307656E0,1.073420238E1,1.188036442E0,7.716853023E-1
3.693689271E0,1.060020447E1,1.147956610E0,6.664010882E-1
3.696070833E0,1.046201897E1,1.102493048E0,5.371887088E-1
3.698452396E0,1.030050373E1,1.033699393E0,4.181457460E-1
3.700833958E0,1.019043350E1,1.017547846E0,2.697907388E-1
3.703215521E0,1.003789139E1,9.768698215E-1,1.453639716E-1
3.705597083E0,9.904491425E0,9.320043921E-1,2.632104978E-2
3.707978646E0,9.742377281E0,9.104689956E-1,-8.853443712E-2
3.710360208E0,9.585049629E0,8.703892231E-1,-1.836491376E-1
3.712741771E0,9.422337532E0,8.584251404E-1,-2.554338276E-1
3.715123333E0,9.269196510E0,8.853443861E-1,-3.367897868E-1
3.717504896E0,9.106484413E0,8.829515576E-1,-4.181457460E-1
3.719886510E0,8.972486496E0,9.146564603E-1,-4.755735099E-1
3.722268073E0,8.828917503E0,9.655039310E-1,-5.377869010E-1
3.724649635E0,8.732605934E0,9.972088337E-1,-6.245267391E-1
3.727031198E0,8.665008545E0,1.067797065E0,-6.873382926E-1
3.729412760E0,8.621339798E0,1.148554921E0,-7.495517135E-1
3.731794323E0,8.568099976E0,1.214357495E0,-8.267202377E-1
3.734175885E0,8.557332039E0,1.300499082E0,-8.554341197E-1
3.736557448E0,8.571090698E0,1.366899967E0,-8.943174481E-1
3.738939010E0,8.579465866E0,1.448255897E0,-9.284151793E-1
3.741320573E0,8.574081421E0,1.543968797E0,-9.236295223E-1
3.743702187E0,8.596813202E0,1.654038668E0,-9.098708034E-1
3.746083750E0,8.609973907E0,1.750349760E0,-8.865407705E-1
3.748465312E0,8.609375954E0,1.802991867E0,-8.721838593E-1
3.750846875E0,8.637491226E0,1.875374794E0,-8.536394835E-1
3.753228437E0,8.684749603E0,1.899901152E0,-8.297112584E-1
3.755610000E0,8.737391472E0,1.905285001E0,-8.249256015E-1
3.757991562E0,8.799605370E0,1.891526341E0,-8.105686903E-1
3.760373125E0,8.867202759E0,1.844268084E0,-7.770691514E-1
3.762754687E0,8.977870941E0,1.755135417E0,-7.429714203E-1
3.765136250E0,9.064610481E0,1.669592023E0,-7.190431952E-1
3.767517812E0,9.142376900E0,1.551147223E0,-6.466603279E-1
3.769899375E0,9.239286423E0,1.409372568E0,-5.886343718E-1
3.772280937E0,9.351150513E0,1.258026481E0,-5.300102234E-1
3.774662552E0,9.476774216E0,1.097109199E0,-4.671986103E-1
3.777044115E0,9.594022751E0,9.499505758E-1,-4.426721931E-1
3.779425677E0,9.699904442E0,8.225327730E-1,-3.894318938E-1
3.781807240E0,9.815957069E0,7.046862841E-1,-3.696911037E-1
3.784188802E0,9.932008743E0,6.107679605E-1,-2.979064286E-1
3.786570365E0,1.001874828E1,5.347958803E-1,-2.542374134E-1
3.788951927E0,1.010010433E1,4.881358147E-1,-1.824527234E-1
3.791333490E0,1.015813065E1,4.462614357E-1,-1.154536903E-1
3.793715052E0,1.022034359E1,4.277170599E-1,-4.366901144E-2
3.796096615E0,1.027358437E1,3.858426511E-1,-5.383851007E-3
3.798478177E0,1.033041382E1,4.055834413E-1,3.290131316E-2
3.800859792E0,1.035434151E1,4.109672904E-1,8.554340899E-2
3.803241354E0,1.040219784E1,4.019941986E-1,1.381855011E-1
3.805622917E0,1.042612648E1,4.121637046E-1,1.860419661E-1
3.808004479E0,1.046919727E1,4.366901219E-1,2.530409992E-1
3.810386042E0,1.048295593E1,4.468596280E-1,3.056831062E-1
3.812767604E0,1.048295593E1,4.995017350E-1,3.768695593E-1
3.815149167E0,1.047218800E1,5.718846321E-1,4.390829504E-1
3.817530729E0,1.044347477E1,6.149554253E-1,5.108676553E-1
3.819912292E0,1.042373371E1,6.915257573E-1,5.581258535E-1
3.822293854E0,1.037468052E1,7.722834945E-1,6.065805554E-1
3.824675417E0,1.033639526E1,8.392825127E-1,6.825526357E-1
3.827056979E0,1.028734303E1,9.343972206E-1,7.202396393E-1
3.829438594E0,1.024367332E1,1.015154958E0,7.441678643E-1
3.831820156E0,1.019521904E1,1.082154036E0,7.866404653E-1
3.834201719E0,1.014197922E1,1.158126116E0,8.105686903E-1
3.836583281E0,1.011266708E1,1.200598717E0,8.584251404E-1
3.838964844E0,1.005464077E1,1.266999602E0,8.769695163E-1
3.841346406E0,1.003968525E1,1.338784218E0,8.721838593E-1
3.843727969E0,1.001515961E1,1.400399446E0,8.763712645E-1
3.846109531E0,1.001456070E1,1.448255897E0,8.763712645E-1
3.848491094E0,9.994820595E0,1.515254974E0,8.853443861E-1
3.850872656E0,9.999007225E0,1.553540111E0,8.949156404E-1
3.853254219E0,1.003190899E1,1.596610904E0,8.805587292E-1
3.855635833E0,1.003190899E1,1.630110383E0,8.368897438E-1
3.858017396E0,1.004566765E1,1.682752490E0,8.225327730E-1
3.860398958E0,1.004566765E1,1.697109461E0,8.033902049E-1
3.862780521E0,1.006480980E1,1.682752490E0,7.698906660E-1
3.865162083E0,1.008814049E1,1.707278967E0,7.698906660E-1
3.867543646E0,1.007378292E1,1.744965911E0,7.411768436E-1
3.869925208E0,1.008275604E1,1.798206210E0,7.645068169E-1
3.872306771E0,1.006361389E1,1.783251047E0,7.980063558E-1
3.874688333E0,1.007318497E1,1.774278045E0,8.075776696E-1
3.877069896E0,1.004925728E1,1.759322882E0,8.171489239E-1
3.879451510E0,1.003071213E1,1.706680775E0,8.273184299E-1
3.881833073E0,1.001216793E1,1.667797327E0,8.273184299E-1
3.884214635E0,9.984052658E0,1.619940877E0,8.279166222E-1
3.886596198E0,9.946365356E0,1.566700578E0,8.327022791E-1
3.888977760E0,9.899106979E0,1.532602906E0,8.087740541E-1
3.891359323E0,9.818349838E0,1.493719578E0,7.902296782E-1
3.893740885E0,9.756733894E0,1.426122308E0,7.710871100E-1
3.896122448E0,9.676574707E0,1.353141189E0,7.812566161E-1
3.898504010E0,9.581459999E0,1.275972724E0,7.770691514E-1
3.900885573E0,9.510273933E0,1.184447169E0,7.920243144E-1
3.903267135E0,9.416355133E0,1.030708313E0,7.926225066E-1
3.905648750E0,9.317052841E0,9.385846853E-1,8.075776696E-1
3.908030260E0,9.174679756E0,8.560323119E-1,8.464609981E-1
3.910411875E0,9.080163956E0,7.597211599E-1,8.709874153E-1
3.912793437E0,8.991030693E0,6.299105883E-1,8.955138922E-1
3.915175000E0,8.882157326E0,5.371887088E-1,8.721838593E-1
3.917556562E0,8.796614647E0,4.785645306E-1,8.769695163E-1
3.919938125E0,8.721240044E0,3.822534084E-1,8.871390224E-1
3.922319687E0,8.659625053E0,3.481557071E-1,9.014959335E-1
3.924701250E0,8.598608017E0,2.333002090E-1,9.212366939E-1
3.927082812E0,8.532207489E0,1.752742529E-1,9.409775138E-1
3.929464375E0,8.475975990E0,7.417750359E-2,9.750752449E-1
3.931845937E0,8.457431793E0,2.153540403E-2,9.655039310E-1
3.934227552E0,8.409575462E0,1.615155302E-2,9.798609018E-1
3.936609115E0,8.395217896E0,6.580262445E-3,1.003789067E0
3.938990677E0,8.395217896E0,-2.213360928E-2,9.900303483E-1
3.941372240E0,8.380861282E0,1.136590727E-2,9.798609018E-1
3.943753802E0,8.395217896E0,-2.991028363E-3,1.009172916E0
3.946135365E0,8.385048866E0,3.050848842E-2,1.003789067E0
3.948516927E0,8.384450912E0,9.272187948E-2,9.846464992E-1
3.950898490E0,8.412566185E0,1.405783296E-1,1.007976532E0
3.953280052E0,8.446065903E0,1.890329868E-1,1.007976532E0
3.955661615E0,8.483752251E0,2.512463629E-1,1.002592683E0
3.958043229E0,8.487939835E0,3.134597540E-1,9.882357717E-1
3.960424792E0,8.530412674E0,3.475574851E-1,1.016949654E0
3.962806354E0,8.587840080E0,3.768695593E-1,1.021137118E0
3.965187917E0,8.605786324E0,4.677968323E-1,1.011565804E0
3.967569479E0,8.691329956E0,5.018945336E-1,9.870393276E-1
3.969951042E0,8.743373871E0,5.700899959E-1,9.726824164E-1
3.972332604E0,8.776275635E0,6.089733839E-1,9.912267923E-1
3.974714167E0,8.857032776E0,6.376872063E-1,9.337990284E-1
3.977095729E0,8.962317467E0,6.155536175E-1,9.337990284E-1
3.979477292E0,9.047860146E0,6.879364848E-1,8.997012973E-1
3.981858854E0,9.119047165E0,7.268198729E-1,9.236295223E-1
3.984240417E0,9.204590797E0,7.609176040E-1,9.038887620E-1
3.986622031E0,9.305088997E0,7.477570772E-1,9.038887620E-1
3.989003594E0,9.390632629E0,7.489534616E-1,9.134600163E-1
3.991385156E0,9.462417603E0,7.399803996E-1,8.991031051E-1
3.993766719E0,9.525228500E0,6.975077987E-1,9.134600163E-1
3.996148281E0,9.583254814E0,6.981059909E-1,8.847461939E-1
3.998529844E0,9.601799011E0,7.130611539E-1,9.182456732E-1
4.000911406E0,9.626325607E0,6.508477330E-1,9.332008362E-1
4.003292969E0,9.650852203E0,5.940182209E-1,9.284151793E-1
4.005674531E0,9.699306488E0,5.270192027E-1,9.577272534E-1
4.008056094E0,9.685547829E0,4.743770957E-1,9.625129104E-1
4.010437708E0,9.648459435E0,4.121637046E-1,9.912267923E-1
4.012819271E0,9.672985077E0,3.457628787E-1,9.918249846E-1
4.015200833E0,9.659226418E0,2.596212626E-1,1.011565804E0
4.017582396E0,9.645467758E0,2.021935135E-1,1.030708313E0
4.019963958E0,9.613164902E0,1.160518974E-1,1.050449133E0
4.022345521E0,9.570692062E0,4.845465720E-2,1.050449133E0
4.024727083E0,9.543174744E0,-3.290131316E-2,1.079761267E0
4.027108646E0,9.504889488E0,-9.092725813E-2,1.094716311E0
4.029490208E0,9.448060036E0,-1.393819153E-1,1.089930773E0
4.031871771E0,9.391230583E0,-1.543370634E-1,1.085145116E0
4.034253385E0,9.339186668E0,-2.021935135E-1,1.109671474E0
4.036634948E0,9.291330338E0,-2.410768867E-1,1.138385415E0
4.039016510E0,9.248857498E0,-2.512463629E-1,1.133599758E0
4.041398073E0,9.192028046E0,-2.991028428E-1,1.153340459E0
4.043779635E0,9.163912773E0,-3.517449200E-1,1.191625714E0
4.046161198E0,9.125627518E0,-3.619144261E-1,1.205982566E0
4.048542760E0,9.101698875E0,-3.667000830E-1,1.239482164E0
4.050924323E0,9.092725754E0,-3.714857101E-1,1.268195987E0
4.053305885E0,9.083154678E0,-3.954139352E-1,1.292722464E0
4.055687448E0,9.083154678E0,-3.954139352E-1,1.311864972E0
4.058069010E0,9.078369141E0,-3.810569942E-1,1.354935765E0
4.060450625E0,9.083154678E0,-3.714857101E-1,1.339980721E0
4.062832187E0,9.087940216E0,-3.762713671E-1,1.335195065E0
4.065213750E0,9.107083321E0,-3.661018610E-1,1.349551916E0
4.067595312E0,9.111269951E0,-3.421736360E-1,1.320838094E0
4.069976875E0,9.139984131E0,-3.326023519E-1,1.316052437E0
4.072358437E0,9.182456970E0,-2.889333367E-1,1.325623751E0
4.074740000E0,9.244071960E0,-2.596212626E-1,1.334596872E0
4.077121562E0,9.310472488E0,-1.968096644E-1,1.339382529E0
4.079503125E0,9.381659508E0,-1.435693651E-1,1.362712502E0
4.081884687E0,9.461818695E0,-8.015955985E-2,1.381855130E0
4.084266302E0,9.533005714E0,-1.256231871E-2,1.381256819E0
4.086647865E0,9.599406242E0,7.896314561E-2,1.414158225E0
4.089029427E0,9.656235695E0,1.274178028E-1,1.418943882E0
4.091410990E0,9.688538551E0,2.189432681E-1,1.437488198E0
4.093792552E0,9.716654778E0,3.146561682E-1,1.451246977E0
4.096174115E0,9.720243454E0,4.007977843E-1,1.456032634E0
4.098555677E0,9.719645500E0,4.725824594E-1,1.450648785E0
4.100937240E0,9.695118904E0,5.437689424E-1,1.441077471E0
4.103318802E0,9.665806770E0,6.107679605E-1,1.430907965E0
4.105700365E0,9.626325607E0,6.963114142E-1,1.406381488E0
4.108081979E0,9.568299294E0,7.483552694E-1,1.372882009E0
4.110463542E0,9.519845009E0,7.854440212E-1,1.339382529E0
4.112845104E0,9.452247620E0,8.327022791E-1,1.301097274E0
4.115226667E0,9.390034676E0,8.650053740E-1,1.252642632E0
4.117608229E0,9.327820778E0,8.883354068E-1,1.223928809E0
4.119989792E0,9.256035805E0,8.871390224E-1,1.209571838E0
4.122371354E0,9.208179474E0,8.769695163E-1,1.152742267E0
4.124752917E0,9.169894218E0,8.907282352E-1,1.143171072E0
4.127134479E0,9.113064766E0,8.662018180E-1,1.138385415E0
4.129516042E0,9.050851822E0,8.464609981E-1,1.119242787E0
4.131897656E0,9.017352104E0,8.506484628E-1,1.100100160E0
4.134279219E0,8.988637924E0,8.362914920E-1,1.080957651E0
4.136660781E0,8.946166039E0,8.404789567E-1,1.100100160E0
4.139042344E0,8.960522652E0,8.165507317E-1,1.128814101E0
4.141423906E0,8.970093727E0,7.980063558E-1,1.182054400E0
4.143805469E0,8.979664803E0,8.177471161E-1,1.243669510E0
4.146187031E0,9.022735596E0,8.183453679E-1,1.320239902E0
4.148568594E0,9.080163956E0,8.099704385E-1,1.406381488E0
4.150950156E0,9.137591362E0,7.968099117E-1,1.526022673E0
4.153331719E0,9.200403214E0,7.740781307E-1,1.627119422E0
4.155713333E0,9.266803741E0,7.752745152E-1,1.751546144E0
4.158094896E0,9.305686951E0,7.471588850E-1,1.852642894E0
4.160476458E0,9.372686386E0,7.298108935E-1,1.967498422E0
4.162858021E0,9.430712700E0,7.016952634E-1,2.044068813E0
4.165239583E0,9.464211464E0,6.598208547E-1,2.106282234E0
4.167621146E0,9.507881165E0,6.173482537E-1,2.178066730E0
4.170002708E0,9.527023315E0,5.940182209E-1,2.236092806E0
4.172384271E0,9.532406807E0,5.844469070E-1,2.288734913E0
4.174765833E0,9.552147865E0,5.802595019E-1,2.336591244E0
4.177147396E0,9.566504478E0,5.760720372E-1,2.370090723E0
4.179528958E0,9.561718941E0,5.760720372E-1,2.374876499E0
4.181910573E0,9.571290970E0,5.419743061E-1,2.374876499E0
4.184292135E0,9.571888924E0,5.036891699E-1,2.365305185E0
4.186673698E0,9.557532310E0,4.989035130E-1,2.360519648E0
4.189055260E0,9.567701340E0,4.749752879E-1,2.341975212E0
4.191436823E0,9.553344727E0,4.408775866E-1,2.327618122E0
4.193818385E0,9.577272415E0,4.319044948E-1,2.318047047E0
4.196199948E0,9.558728218E0,4.121637046E-1,2.318047047E0
4.198581510E0,9.558728218E0,4.025924206E-1,2.313261271E0
4.200963073E0,9.587442398E0,3.840480447E-1,2.322832584E0
4.203344687E0,9.601799011E0,3.744767308E-1,2.322832584E0
4.205726250E0,9.611370087E0,3.702892959E-1,2.361117840E0
4.208107812E0,9.635896683E0,3.230310678E-1,2.371287346E0
4.210489375E0,9.631709099E0,2.991028428E-1,2.428714991E0
4.212870937E0,9.632308006E0,2.464607358E-1,2.471785784E0
4.215252500E0,9.626923561E0,2.566302419E-1,2.510071039E0
4.217634062E0,9.603593826E0,2.231307179E-1,2.548356056E0
4.220015625E0,9.579665184E0,2.129612118E-1,2.582453728E0
4.222397187E0,9.546764374E0,1.890329868E-1,2.606382132E0
4.224778750E0,9.527023315E0,1.938186288E-1,2.625524759E0
4.227160312E0,9.489336014E0,1.645065546E-1,2.659024239E0
4.229541927E0,9.422337532E0,1.501496136E-1,2.706880569E0
4.231923490E0,9.379864693E0,1.351944804E-1,2.721835852E0
4.234305052E0,9.340981483E0,1.680957973E-1,2.740380049E0
4.236686615E0,9.288937569E0,1.585244983E-1,2.774477959E0
4.239068177E0,9.250652313E0,1.292124242E-1,2.774477959E0
4.241449740E0,9.226723671E0,1.579262912E-1,2.784049034E0
4.243831302E0,9.202795982E0,1.716850251E-1,2.760120869E0
4.246212865E0,9.173483849E0,1.854437590E-1,2.740380049E0
4.248594427E0,9.144769669E0,2.422732860E-1,2.711666346E0
4.250975990E0,9.129815102E0,2.901297510E-1,2.668595552E0
4.253357604E0,9.119645119E0,3.373879790E-1,2.639283419E0
4.255739167E0,9.113663673E0,4.235295951E-1,2.605783939E0
4.258120729E0,9.098708153E0,4.947160780E-1,2.595614433E0
4.260502292E0,9.087940216E0,5.862415433E-1,2.585444927E0
4.262883854E0,9.096913338E0,6.669993401E-1,2.542374134E0
4.265265417E0,9.081958771E0,7.148557901E-1,2.541775942E0
4.267646979E0,9.105288506E0,7.866404653E-1,2.508276224E0
4.270028542E0,9.104690552E0,8.291130662E-1,2.469991207E0
4.272410156E0,9.132805824E0,8.817551732E-1,2.426322222E0
4.274791719E0,9.136993408E0,9.248259664E-1,2.383251429E0
4.277173281E0,9.165707588E0,9.391828775E-1,2.349751949E0
4.279554844E0,9.203393936E0,9.541380405E-1,2.330011129E0
4.281936406E0,9.212965012E0,9.684949517E-1,2.330011129E0
4.284317969E0,9.241081238E0,9.972088337E-1,2.344367981E0
4.286699531E0,9.270393372E0,9.786644578E-1,2.353939295E0
4.289081094E0,9.308678627E0,9.649057388E-1,2.392224550E0
4.291462656E0,9.318249702E0,9.846464992E-1,2.430509567E0
4.293844219E0,9.346364975E0,1.003789067E0,2.473580360E0
4.296225781E0,9.355937004E0,1.018744230E0,2.521436930E0
4.298607396E0,9.379864693E0,1.028913736E0,2.578864574E0
4.300988958E0,9.408578873E0,1.038485050E0,2.611765862E0
4.303370521E0,9.407979965E0,1.058225870E0,2.640479803E0
4.305752083E0,9.417551994E0,1.072582722E0,2.640479803E0
4.308133646E0,9.427123070E0,1.091725349E0,2.669193745E0
4.310515208E0,9.436096191E0,1.120439172E0,2.683550596E0
4.312896771E0,9.440881729E0,1.144965649E0,2.712264538E0
4.315278333E0,9.445069313E0,1.168893814E0,2.730808735E0
4.317659896E0,9.454640388E0,1.197607756E0,2.735594511E0
4.320041510E0,9.449256897E0,1.235892892E0,2.778665304E0
4.322423073E0,9.415159225E0,1.317248821E0,2.836092949E0
4.324804635E0,9.428917885E0,1.360319614E0,2.869592667E0
4.327186198E0,9.419346809E0,1.393819213E0,2.946162939E0
4.329567760E0,9.433105469E0,1.461416483E0,3.012563705E0
4.331949323E0,9.427721024E0,1.494915962E0,3.046063185E0
4.334330885E0,9.417551994E0,1.542772412E0,3.108276606E0
4.336712448E0,9.427123070E0,1.585843205E0,3.141177893E0
4.339094010E0,9.446265221E0,1.581655741E0,3.189034462E0
4.341475573E0,9.455238342E0,1.591825247E0,3.212962627E0
4.343857187E0,9.488738060E0,1.591825247E0,3.208176851E0
4.346238750E0,9.512666702E0,1.601396561E0,3.179463148E0
4.348620312E0,9.512666702E0,1.625324726E0,3.184248686E0
4.351001875E0,9.560523033E0,1.640279889E0,3.155534744E0
4.353383437E0,9.584450722E0,1.649851203E0,3.112463951E0
4.355765000E0,9.569496155E0,1.692921996E0,3.083152056E0
4.358146562E0,9.569496155E0,1.721635938E0,3.006581545E0
4.360528125E0,9.602396965E0,1.721037745E0,2.906083107E0
4.362909687E0,9.664610863E0,1.731207132E0,2.790629387E0
4.365291250E0,9.711869240E0,1.730608940E0,2.632703066E0
4.367672865E0,9.789037704E0,1.673181176E0,2.465205431E0
4.370054427E0,9.899705887E0,1.606182218E0,2.278565407E0
4.372435990E0,1.002353382E1,1.573280931E0,2.101496458E0
4.374817552E0,1.018205833E1,1.512263894E0,1.914856315E0
4.377199115E0,1.035015392E1,1.412961721E0,1.709671736E0
4.379580677E0,1.056550884E1,1.323230863E0,1.508076429E0
4.381962240E0,1.078684425E1,1.238883972E0,1.331605792E0
4.384343802E0,1.103569794E1,1.164706469E0,1.149751306E0
4.386725365E0,1.126600742E1,1.075573802E0,1.010967612E0
4.389106979E0,1.149093246E1,1.029511929E0,8.913264275E-1
4.391488542E0,1.169671535E1,9.882357717E-1,7.621139884E-1
4.393870104E0,1.179302597E1,9.361918569E-1,7.046862841E-1
4.396251667E0,1.198863983E1,9.236295223E-1,5.509474277E-1
4.398633229E0,1.219920826E1,8.721838593E-1,3.595215976E-1
4.401001510E0,1.237089348E1,8.925228715E-1,1.968096644E-1
4.403396354E0,1.254317665E1,8.697910309E-1,6.699903309E-2
4.405801927E0,1.265803146E1,8.662018180E-1,-5.264209956E-2
4.408207500E0,1.277707481E1,8.524430394E-1,-1.770688742E-1
4.410613073E0,1.286321640E1,8.386843204E-1,-2.201396823E-1
4.413042344E0,1.302174091E1,8.207381964E-1,-3.110669553E-1
4.415471510E0,1.307438278E1,8.021938205E-1,-3.732803464E-1
4.417900677E0,1.311745358E1,7.740781307E-1,-3.780659735E-1
4.420329844E0,1.314616776E1,7.597211599E-1,-4.307080805E-1
4.422759010E0,1.316590881E1,7.118647099E-1,-4.636093974E-1
4.425188177E0,1.313300705E1,6.442674994E-1,-4.827519655E-1
4.427617344E0,1.309113312E1,5.431707501E-1,-4.869394004E-1
4.430046510E0,1.300618744E1,4.468596280E-1,-4.815555513E-1
4.432475677E0,1.290688515E1,3.164508045E-1,-4.761717021E-1
4.434904896E0,1.275015545E1,1.956132501E-1,-4.372883439E-1
4.437334062E0,1.257488155E1,6.939185411E-2,-3.984049559E-1
4.439763229E0,1.235653591E1,-3.768695518E-2,-3.493520916E-1
4.442192396E0,1.217647648E1,-1.543370634E-1,-3.248256743E-1
4.444621562E0,1.194317627E1,-2.374876440E-1,-2.811566591E-1
4.447050729E0,1.169432259E1,-2.781656384E-1,-2.333002090E-1
4.449479896E0,1.143709373E1,-3.050848842E-1,-1.848455518E-1
4.451909115E0,1.118405342E1,-3.122633696E-1,-1.082752272E-1
4.454338281E0,1.093579769E1,-3.050848842E-1,-6.939185411E-2
4.456753906E0,1.065284634E1,-2.650051117E-1,-2.153540403E-2
4.459196615E0,1.037049294E1,-2.344966233E-1,7.178467698E-3
4.461625781E0,1.011685371E1,-1.459621787E-1,3.589234129E-2
4.464041406E0,9.876974106E0,-8.673982322E-2,3.589234129E-2
4.466484115E0,9.661619186E0,-1.256231871E-2,3.529413417E-2
4.468913281E0,9.425926208E0,7.537391037E-2,2.572284266E-2
4.471328958E0,9.238688469E0,1.788634956E-1,1.794616925E-3
4.473771615E0,9.084949493E0,2.673979402E-1,-1.794617064E-2
4.476200781E0,8.945567131E0,3.469592929E-1,-4.666004330E-2
4.478616458E0,8.854640007E0,3.601198196E-1,-1.040877849E-1
4.481059167E0,8.782855988E0,3.738785386E-1,-1.328016520E-1
4.483488333E0,8.748757362E0,3.924229145E-1,-1.519442350E-1
4.485917500E0,8.700901031E0,4.444667995E-1,-1.477568001E-1
4.488346667E0,8.671588898E0,4.971089065E-1,-1.142572835E-1
4.490775833E0,8.680562019E0,5.545366406E-1,-5.742774159E-2
4.493205000E0,8.684151649E0,6.364908218E-1,-4.785645287E-3
4.495634167E0,8.736195564E0,7.088736892E-1,4.725824669E-2
4.498063333E0,8.797810555E0,7.818548083E-1,1.046859920E-1
4.500492552E0,8.863613129E0,8.685946465E-1,1.806581169E-1
4.502921719E0,8.973084450E0,8.943174481E-1,2.476571500E-1
4.505350885E0,9.082556725E0,9.433703423E-1,2.757728100E-1
4.507780052E0,9.196813583E0,9.924231768E-1,3.326023519E-1
4.510209219E0,9.339784622E0,1.042074203E0,3.708875179E-1
4.512638385E0,9.487542152E0,1.048654556E0,3.948157430E-1
4.515067552E0,9.636494637E0,1.036092162E0,4.283152521E-1
4.517496719E0,9.803992271E0,1.018744230E0,4.707878530E-1
4.519925885E0,9.952347755E0,9.918249846E-1,4.803591371E-1
4.522355104E0,1.010548782E1,9.314061999E-1,5.000999570E-1
4.524784271E0,1.024008465E1,8.997012973E-1,5.335994363E-1
4.527213437E0,1.036451149E1,8.769695163E-1,5.479564071E-1
4.529619479E0,1.048355389E1,8.644071817E-1,5.820540786E-1
4.532001042E0,1.056012440E1,8.602197170E-1,5.964110494E-1
4.534382604E0,1.060798073E1,8.470591903E-1,6.299105883E-1
4.536764167E0,1.063250732E1,8.374879360E-1,6.825526357E-1
4.539145729E0,1.067139053E1,8.189435601E-1,6.825526357E-1
4.541527292E0,1.070967579E1,7.956135273E-1,7.304090858E-1
4.543908906E0,1.073838997E1,7.818548083E-1,7.399803996E-1
4.546290469E0,1.074377346E1,7.627122402E-1,7.543373108E-1
4.548672031E0,1.071984577E1,7.196413875E-1,7.878368497E-1
4.551053594E0,1.072522926E1,6.819544435E-1,8.219345808E-1
4.553435156E0,1.069711399E1,6.191428304E-1,8.458628058E-1
4.555816719E0,1.067438221E1,5.563312769E-1,8.751748800E-1
4.558198281E0,1.066540909E1,4.660021961E-1,8.997012973E-1
4.560579844E0,1.063190937E1,4.079762697E-1,9.044869542E-1
4.562961406E0,1.060917759E1,3.314059377E-1,9.002995491E-1
4.565343021E0,1.059063339E1,2.548356056E-1,9.098708034E-1
4.567724583E0,1.056311512E1,1.830509305E-1,9.056833982E-1
4.570106146E0,1.055414295E1,1.202393398E-1,8.913264275E-1
4.572487708E0,1.053559780E1,5.802594870E-2,8.871390224E-1
4.574869271E0,1.054098225E1,-1.375873014E-2,8.632107973E-1
4.577250833E0,1.050329494E1,-8.554340899E-2,8.494520187E-1
4.579632396E0,1.048056316E1,-1.579262912E-1,8.356932998E-1
4.582013958E0,1.044766140E1,-2.201396823E-1,8.309076428E-1
4.584395573E0,1.040997505E1,-2.877369225E-1,8.219345808E-1
4.586777135E0,1.036750221E1,-3.361915946E-1,7.932206988E-1
4.589158698E0,1.031067276E1,-3.702892959E-1,8.027920127E-1
4.591540260E0,1.021555805E1,-3.900300860E-1,8.177471161E-1
4.593921823E0,1.015813065E1,-4.193421602E-1,8.129615188E-1
4.596303385E0,1.009113121E1,-3.720839322E-1,8.273184299E-1
4.598684948E0,1.002891827E1,-3.487538993E-1,8.321040869E-1
4.601066510E0,9.942776680E0,-3.403790295E-1,8.464609981E-1
4.603448073E0,9.866206169E0,-3.224328458E-1,8.321040869E-1
4.605829687E0,9.774680138E0,-2.608176768E-1,8.458628058E-1
4.608211250E0,9.688538551E0,-2.428714931E-1,8.554341197E-1
4.610592812E0,9.587442398E0,-1.764706671E-1,8.985049129E-1
4.612974375E0,9.510273933E0,-1.345962733E-1,9.176474810E-1
4.615355937E0,9.418747902E0,-9.272187948E-2,9.176474810E-1
4.617737500E0,9.322437286E0,-3.589234129E-2,9.314061999E-1
4.620119062E0,9.231510162E0,1.196411322E-3,9.601200819E-1
4.622500625E0,9.178867340E0,3.888336942E-2,9.792626500E-1
4.624882187E0,9.106484413E0,1.004985496E-1,9.840483069E-1
4.627263802E0,9.024530411E0,1.854437590E-1,9.595218897E-1
4.629645365E0,8.933005333E0,2.464607358E-1,9.499505758E-1
4.632026927E0,8.851649284E0,2.793620527E-1,9.643075466E-1
4.634408490E0,8.817551613E0,3.122633696E-1,9.541380405E-1
4.636790052E0,8.802596092E0,3.547359705E-1,9.397810698E-1
4.639171615E0,8.730812073E0,3.876372576E-1,9.349954724E-1
4.641553177E0,8.677571297E0,4.630111754E-1,9.056833982E-1
4.643934740E0,8.648259163E0,5.060819983E-1,8.673982024E-1
4.646316302E0,8.576474190E0,5.335994363E-1,9.008977413E-1
4.648697917E0,8.523234367E0,6.101697683E-1,9.008977413E-1
4.651079479E0,8.484351158E0,6.717849374E-1,9.050851464E-1
4.653461042E0,8.469993591E0,6.574280262E-1,8.715856671E-1
4.655842604E0,8.446065903E0,6.526423693E-1,8.811569214E-1
4.658224167E0,8.422137260E0,6.424728632E-1,9.194421172E-1
4.660605729E0,8.393424034E0,6.424728632E-1,9.391828775E-1
4.662987292E0,8.354539871E0,7.088736892E-1,9.577272534E-1
4.665368854E0,8.325826645E0,7.184450030E-1,1.005583763E0
4.667750469E0,8.320442200E0,7.280163169E-1,1.039083242E0
4.670132031E0,8.325227737E0,7.280163169E-1,1.034297585E0
4.672513594E0,8.358727455E0,7.573283911E-1,1.039083242E0
4.674895156E0,8.363512993E0,7.668996453E-1,1.015154958E0
4.677276719E0,8.411369324E0,7.627122402E-1,9.960124493E-1
4.679658281E0,8.454441071E0,7.627122402E-1,1.005583763E0
4.682039844E0,8.507082939E0,7.489534616E-1,9.768698215E-1
4.684421406E0,8.531010628E0,7.782655358E-1,9.714859724E-1
4.686802969E0,8.574081421E0,7.591229677E-1,9.427721500E-1
4.689184583E0,8.593224525E0,7.399803996E-1,9.044869542E-1
4.691566146E0,8.617152214E0,7.310073376E-1,8.859425783E-1
4.693947708E0,8.650651932E0,7.262216806E-1,8.757730722E-1
4.696329271E0,8.669795036E0,7.411768436E-1,8.901300430E-1
4.698710833E0,8.693722725E0,7.316055298E-1,8.757730722E-1
4.701092396E0,8.732605934E0,6.843472719E-1,8.859425783E-1
4.703473958E0,8.756534576E0,6.412764788E-1,8.668000102E-1
4.705855521E0,8.795417786E0,6.131607890E-1,8.715856671E-1
4.708237083E0,8.848059654E0,5.850451589E-1,8.524430394E-1
4.710618698E0,8.876773834E0,5.754738450E-1,8.189435601E-1
4.713000260E0,8.919844627E0,5.617151260E-1,8.141579032E-1
4.715381823E0,8.952746391E0,5.952146053E-1,7.710871100E-1
4.717763385E0,8.991030693E0,6.149554253E-1,7.567301393E-1
4.720144948E0,9.034101486E0,6.101697683E-1,7.328019142E-1
4.722526510E0,9.043074608E0,6.340979934E-1,7.040880919E-1
4.724908073E0,9.110074043E0,6.352944374E-1,7.465606928E-1
4.727289635E0,9.162715912E0,6.406782866E-1,7.513462901E-1
4.729671250E0,9.214759827E0,6.556333899E-1,7.657032609E-1
4.732052812E0,9.276973724E0,6.658028960E-1,7.752745152E-1
4.734434375E0,9.348159790E0,7.094719410E-1,8.135597110E-1
4.736815937E0,9.409774780E0,7.393822074E-1,8.321040869E-1
4.739197500E0,9.461818695E0,8.021938205E-1,8.943174481E-1
4.741579062E0,9.504291534E0,8.458628058E-1,9.559326172E-1
4.743960625E0,9.562317848E0,8.656035662E-1,1.003789067E0
4.746342187E0,9.600603104E0,8.853443861E-1,1.056431174E0
4.748723750E0,9.657432556E0,9.152546525E-1,1.094716311E0
4.751105365E0,9.705288887E0,9.302098155E-1,1.118046403E0
4.753486927E0,9.738189697E0,9.445667267E-1,1.151545882E0
4.755868490E0,9.786046028E0,9.308080077E-1,1.161117196E0
4.758250052E0,9.815358162E0,8.979067206E-1,1.195214868E0
4.760631615E0,9.820143700E0,8.889335990E-1,1.223928809E0
4.763013177E0,9.829715729E0,8.985049129E-1,1.238285661E0
4.765394740E0,9.820143700E0,8.841479421E-1,1.276570916E0
4.767776302E0,9.811170578E0,8.697910309E-1,1.324427366E0
4.770157917E0,9.801599503E0,8.410771489E-1,1.338784218E0
4.772539479E0,9.782457352E0,8.362914920E-1,1.357926846E0
4.774921042E0,9.759127617E0,8.171489239E-1,1.391426325E0
4.777302604E0,9.739984512E0,7.884350419E-1,1.415952802E0
4.779684167E0,9.716654778E0,7.645068169E-1,1.444666624E0
4.782065729E0,9.702297211E0,7.501499057E-1,1.444666624E0
4.784447292E0,9.707681656E0,7.118647099E-1,1.463809252E0
4.786828854E0,9.717252731E0,6.927221417E-1,1.473380566E0
4.789210469E0,9.732208252E0,6.598208547E-1,1.483550072E0
4.791592031E0,9.756135941E0,6.263213158E-1,1.483550072E0
4.793973594E0,9.770493507E0,6.119644046E-1,1.493121386E0
4.796355156E0,9.760921478E0,6.215356588E-1,1.497906923E0
4.798736719E0,9.780662537E0,6.029912829E-1,1.497906923E0
4.801118281E0,9.770493507E0,6.317051649E-1,1.502692580E0
4.803499844E0,9.775279045E0,6.604190469E-1,1.517049551E0
4.805881406E0,9.755537987E0,7.076773047E-1,1.554736495E0
4.808263021E0,9.745966911E0,7.220342159E-1,1.559522152E0
4.810644583E0,9.735796928E0,7.411768436E-1,1.616949916E0
4.813026146E0,9.726225853E0,7.555337548E-1,1.631306887E0
4.815407708E0,9.716654778E0,7.794619799E-1,1.640878081E0
4.817789271E0,9.711869240E0,7.890332937E-1,1.660020709E0
4.820170833E0,9.721440315E0,7.992027402E-1,1.684547186E0
4.822552396E0,9.701699257E0,8.033902049E-1,1.669592023E0
4.824933958E0,9.696913719E0,8.177471161E-1,1.693520188E0
4.827315521E0,9.701699257E0,8.368897438E-1,1.707877159E0
4.829697135E0,9.696913719E0,8.416753411E-1,1.703091502E0
4.832078698E0,9.692128181E0,8.464609981E-1,1.731805444E0
4.834460260E0,9.668199539E0,8.656035662E-1,1.765304923E0
4.836841823E0,9.644271851E0,8.703892231E-1,1.803590059E0
4.839223385E0,9.649057388E0,8.703892231E-1,1.827518344E0
4.841604948E0,9.610772133E0,8.751748800E-1,1.841875196E0
4.843986510E0,9.582057953E0,8.793623447E-1,1.875374794E0
4.846368073E0,9.548559189E0,8.889335990E-1,1.908874273E0
4.848749687E0,9.519247055E0,8.979067206E-1,1.908874273E0
4.851131250E0,9.500103951E0,9.074779749E-1,1.918445587E0
4.853512812E0,9.447462082E0,8.829515576E-1,1.923231244E0
4.855894375E0,9.428318977E0,8.925228715E-1,1.884945989E0
4.858275937E0,9.395418167E0,8.584251404E-1,1.875972986E0
4.860657500E0,9.371489525E0,8.482556343E-1,1.847259045E0
4.863039062E0,9.352347374E0,8.243274093E-1,1.818545222E0
4.865420625E0,9.319445610E0,7.950153351E-1,1.789831281E0
4.867802187E0,9.305088997E0,7.950153351E-1,1.756331801E0
4.870183802E0,9.300901413E0,7.657032609E-1,1.722832322E0
4.872565365E0,9.296115875E0,7.465606928E-1,1.699502230E0
4.874946927E0,9.286544800E0,7.178468108E-1,1.694716692E0
4.877328490E0,9.282357216E0,6.987041831E-1,1.704287887E0
4.879710052E0,9.277571678E0,6.891329288E-1,1.694716692E0
4.882091615E0,9.282357216E0,6.891329288E-1,1.718644857E0
4.884473177E0,9.277571678E0,6.939185858E-1,1.742573142E0
4.886854792E0,9.263215065E0,6.795616150E-1,1.756929994E0
4.889236354E0,9.273384094E0,6.562315822E-1,1.785643935E0
4.891617917E0,9.268598557E0,6.418746710E-1,1.814955950E0
4.893999479E0,9.292527199E0,6.418746710E-1,1.828714728E0
4.896381042E0,9.326025963E0,6.329016089E-1,1.867598057E0
4.898762604E0,9.340383530E0,6.143572330E-1,1.910668850E0
4.901144167E0,9.388239861E0,6.005984545E-1,1.948953986E0
4.903525729E0,9.427123070E0,5.820540786E-1,1.987239242E0
4.905907292E0,9.460622787E0,5.778666735E-1,2.001596212E0
4.908288906E0,9.512666702E0,5.832505226E-1,2.015953064E0
4.910670469E0,9.580862045E0,5.545366406E-1,2.020738840E0
4.913052031E0,9.628718376E0,5.359922647E-1,2.011167526E0
4.915433594E0,9.690931320E0,5.413761139E-1,1.972882271E0
4.917815156E0,9.753145218E0,5.180460811E-1,1.963310957E0
4.920196719E0,9.819545746E0,5.234299302E-1,1.915454507E0
4.922578281E0,9.853045464E0,5.330012441E-1,1.905883193E0
4.924959844E0,9.905687332E0,5.144568682E-1,1.901097536E0
4.927341458E0,9.953543663E0,5.006981492E-1,1.905883193E0
4.929723021E0,9.996614456E0,4.821537733E-1,1.925025821E0
4.932104583E0,1.002592659E1,4.731806815E-1,1.953739643E0
4.934486146E0,1.004506969E1,4.354937077E-1,2.020738840E0
4.936867708E0,1.004985523E1,4.313062727E-1,2.078166485E0
4.939249271E0,1.007916737E1,3.978067636E-1,2.121237278E0
4.941630833E0,1.006959629E1,4.127618968E-1,2.154736757E0
4.944012448E0,1.003609657E1,4.121637046E-1,2.207378864E0
4.946394010E0,1.000798035E1,3.882354796E-1,2.246262312E0
4.948775573E0,9.964909554E0,3.834498227E-1,2.274976015E0
4.951157135E0,9.917053223E0,3.972085714E-1,2.298904419E0
4.953538698E0,9.868598938E0,4.348955154E-1,2.322234392E0
4.955920260E0,9.796813965E0,4.534398913E-1,2.322234392E0
4.958301823E0,9.772886276E0,4.624129832E-1,2.303091764E0
4.960683385E0,9.720243454E0,4.761717021E-1,2.298306227E0
4.963064948E0,9.662218094E0,5.330012441E-1,2.264806747E0
4.965446562E0,9.614361763E0,5.754738450E-1,2.226521492E0
4.967828125E0,9.571290970E0,5.802595019E-1,2.240878344E0
4.970209687E0,9.531808853E0,6.083751321E-1,2.226521492E0
4.972591250E0,9.517452240E0,6.173482537E-1,2.221137524E0
4.974972812E0,9.479166985E0,6.167500615E-1,2.183450699E0
4.977354375E0,9.474381447E0,6.454638839E-1,2.187638044E0
4.979735937E0,9.469595909E0,6.167500615E-1,2.164308071E0
4.982117500E0,9.483952522E0,6.269195080E-1,2.182852507E0
4.984499115E0,9.484550476E0,5.886343718E-1,2.173879385E0
4.986880677E0,9.512666702E0,5.982056856E-1,2.188236237E0
4.989262240E0,9.522835732E0,5.700899959E-1,2.212164640E0
4.991643802E0,9.523433685E0,5.312066078E-1,2.255235434E0
4.994025365E0,9.557532310E0,5.126622319E-1,2.283949137E0
4.996406927E0,9.567103386E0,4.941178858E-1,2.322234392E0
4.998788490E0,9.591031075E0,4.797609448E-1,2.365305185E0
5.001170052E0,9.596415520E0,4.277170599E-1,2.389831543E0
5.003551667E0,9.611370087E0,4.181457460E-1,2.428116798E0
5.005933229E0,9.630513191E0,3.900300860E-1,2.447259426E0
5.008314792E0,9.635298729E0,3.756731451E-1,2.447259426E0
5.010696354E0,9.669396400E0,3.332005441E-1,2.423331022E0
5.013077917E0,9.674779892E0,2.853440940E-1,2.395215511E0
5.015459479E0,9.684351921E0,2.518445849E-1,2.400001049E0
5.017841042E0,9.694520950E0,2.279163599E-1,2.371287346E0
5.020222604E0,9.719047546E0,1.465603858E-1,2.362314224E0
5.022604219E0,9.719047546E0,1.178465188E-1,2.333600283E0
5.024985781E0,9.734002113E0,8.434699476E-2,2.304886341E0
5.027367344E0,9.758528709E0,3.708875179E-2,2.262413740E0
5.029748906E0,9.753743172E0,-6.580262445E-3,2.204986095E0
5.032130469E0,9.773484230E0,-5.922235921E-2,2.152343988E0
5.034512031E0,9.778867722E0,-1.070788130E-1,2.124228239E0
