"Time (s)","Gyroscope x (rad/s)","Gyroscope y (rad/s)","Gyroscope z (rad/s)"
3.507682300E-2,1.359135192E-2,-7.773031294E-2,1.832541823E-2
3.745838500E-2,1.603474095E-2,-8.261708915E-2,1.847812906E-2
3.983994800E-2,2.107422985E-2,-8.368607610E-2,2.092151903E-2
4.222151000E-2,2.473931387E-2,-8.246438205E-2,2.092151903E-2
4.460307300E-2,2.718270384E-2,-8.124268800E-2,2.458660305E-2
4.698463500E-2,2.962609194E-2,-7.879929990E-2,2.458660305E-2
4.936619800E-2,2.840439789E-2,-7.513421029E-2,2.458660305E-2
5.174776000E-2,2.840439789E-2,-7.391251624E-2,2.580829710E-2
5.412932300E-2,3.084778599E-2,-7.391251624E-2,2.702999115E-2
5.651088500E-2,3.222219273E-2,-7.513421029E-2,2.702999115E-2
5.889244800E-2,3.588727489E-2,-7.635590434E-2,2.825168520E-2
6.127401000E-2,3.833066672E-2,-7.757759839E-2,2.702999115E-2
6.365557300E-2,4.214845970E-2,-7.757759839E-2,2.580829710E-2
6.603713500E-2,4.581354558E-2,-8.002099395E-2,2.336490713E-2
6.841869800E-2,4.947862774E-2,-7.879929990E-2,2.214321308E-2
7.080026000E-2,5.070032179E-2,-8.002099395E-2,2.214321308E-2
7.318182300E-2,5.314370990E-2,-7.986827940E-2,2.092151903E-2
7.556338500E-2,5.573981255E-2,-8.231166750E-2,2.092151903E-2
7.794494800E-2,5.696150661E-2,-8.108997345E-2,1.725643501E-2
8.032651000E-2,5.573981255E-2,-8.231166750E-2,1.603474095E-2
8.270802100E-2,5.314370990E-2,-8.246438205E-2,1.359135192E-2
8.508963500E-2,5.192201585E-2,-7.513421029E-2,1.359135192E-2
8.747114600E-2,5.192201585E-2,-7.269082218E-2,1.359135192E-2
8.985270800E-2,4.810422286E-2,-6.902574003E-2,1.236965694E-2
9.223427100E-2,4.566083103E-2,-6.306997687E-2,9.926267900E-3
9.461583300E-2,4.428642616E-2,-5.940489471E-2,7.482878864E-3
9.699739600E-2,4.184303805E-2,-5.589252338E-2,6.108472589E-3
9.937895800E-2,4.062134400E-2,-4.978405312E-2,4.886778072E-3
1.017605210E-1,3.802524135E-2,-4.611896724E-2,4.886778072E-3
1.041420830E-1,3.924693540E-2,-4.489727318E-2,1.221694518E-3
1.065236460E-1,3.680354729E-2,-4.123219103E-2,2.443389036E-3
1.089052080E-1,3.558185324E-2,-3.894151375E-2,-0.000000000E0
1.112867710E-1,3.420744836E-2,-3.771981969E-2,1.221694518E-3
1.136683330E-1,3.176405653E-2,-3.649812192E-2,-0.000000000E0
1.160498960E-1,2.809897438E-2,-3.527642787E-2,-2.443389036E-3
1.184314580E-1,2.428117767E-2,-3.420744836E-2,-5.039489828E-3
1.208130210E-1,2.305948362E-2,-3.298575059E-2,-5.039489828E-3
1.231945830E-1,2.428117767E-2,-3.176405653E-2,-6.261184346E-3
1.255761460E-1,2.061609551E-2,-3.054236248E-2,-7.482878864E-3
1.279577080E-1,2.061609551E-2,-2.932066843E-2,-6.261184346E-3
1.303392710E-1,1.801999472E-2,-3.054236248E-2,-6.261184346E-3
1.327208330E-1,1.679829881E-2,-3.420744836E-2,-5.039489828E-3
1.351023960E-1,1.557660475E-2,-3.665083647E-2,-6.261184346E-3
1.374839580E-1,1.313321572E-2,-3.665083647E-2,-5.039489828E-3
1.398655210E-1,1.191152167E-2,-4.031591862E-2,-3.817795310E-3
1.422470830E-1,1.206423342E-2,-4.504998401E-2,-1.374406274E-3
1.446286460E-1,1.068982668E-2,-4.627167806E-2,-1.374406274E-3
1.470102080E-1,1.084253844E-2,-4.871506989E-2,1.221694518E-3
1.493917710E-1,7.024743594E-3,-5.238015205E-2,2.443389036E-3
1.517733330E-1,7.177455351E-3,-5.726693198E-2,1.221694518E-3
1.541548960E-1,5.955760833E-3,-6.093201414E-2,2.443389036E-3
1.565364580E-1,4.734066315E-3,-6.566607952E-2,2.443389036E-3
1.589180210E-1,4.734066315E-3,-7.055285573E-2,-0.000000000E0
1.612995830E-1,5.955760833E-3,-7.543963939E-2,2.443389036E-3
1.636811460E-1,5.955760833E-3,-7.788302749E-2,1.221694518E-3
1.660627080E-1,7.177455351E-3,-8.032641560E-2,2.443389036E-3
1.684442710E-1,9.773556143E-3,-8.276980370E-2,1.221694518E-3
1.708258330E-1,9.773556143E-3,-8.383878320E-2,2.443389036E-3
1.732073960E-1,1.221694518E-2,-8.750387281E-2,3.665083554E-3
1.755889580E-1,1.099525020E-2,-8.994726092E-2,4.886778072E-3
1.779705210E-1,1.221694518E-2,-8.994726092E-2,4.886778072E-3
1.803520830E-1,1.343864016E-2,-9.239064902E-2,3.665083554E-3
1.827336460E-1,1.588202827E-2,-8.750387281E-2,1.221694518E-3
1.851152080E-1,1.466033421E-2,-8.628217876E-2,-0.000000000E0
1.874967710E-1,1.588202827E-2,-8.383878320E-2,-2.443389036E-3
1.898783330E-1,1.466033421E-2,-7.788302749E-2,-4.886778072E-3
1.922598960E-1,1.588202827E-2,-7.421794534E-2,-6.108472589E-3
1.946414580E-1,1.328592747E-2,-6.444438547E-2,-4.886778072E-3
1.970230210E-1,1.206423342E-2,-6.093201414E-2,-7.330167107E-3
1.994045830E-1,1.328592747E-2,-5.848862603E-2,-7.330167107E-3
2.017861460E-1,1.328592747E-2,-5.238015205E-2,-4.886778072E-3
2.041677080E-1,1.068982668E-2,-4.871506989E-2,-7.482878864E-3
2.065492190E-1,1.068982668E-2,-4.504998401E-2,-5.039489828E-3
2.089307810E-1,1.068982668E-2,-4.382828996E-2,-3.817795310E-3
2.113123440E-1,9.468132630E-3,-4.031591862E-2,-2.596100792E-3
2.136939580E-1,9.468132630E-3,-3.909422457E-2,-2.596100792E-3
2.160754690E-1,9.468132630E-3,-3.787253052E-2,-2.596100792E-3
2.184570310E-1,7.024743594E-3,-3.542914242E-2,-2.596100792E-3
2.208385940E-1,9.468132630E-3,-3.542914242E-2,-2.596100792E-3
2.232201560E-1,8.246437646E-3,-3.298575059E-2,-3.817795310E-3
2.256017190E-1,4.428642802E-3,-2.809897438E-2,-3.817795310E-3
2.279832810E-1,4.428642802E-3,-2.580829710E-2,-2.596100792E-3
2.303648440E-1,3.206948051E-3,-2.214321308E-2,-1.527118147E-4
2.327464060E-1,4.428642802E-3,-1.725643501E-2,-1.527118147E-4
2.351279690E-1,5.650337320E-3,-1.603474095E-2,-2.596100792E-3
2.375095310E-1,5.650337320E-3,-1.114796288E-2,-1.527118147E-4
2.398910940E-1,6.872031838E-3,-1.114796288E-2,-1.527118147E-4
2.422726560E-1,4.428642802E-3,-1.481304597E-2,-1.527118147E-4
2.446542190E-1,5.650337320E-3,-1.603474095E-2,1.068982761E-3
2.470357810E-1,4.428642802E-3,-2.092151903E-2,1.068982761E-3
2.494173440E-1,4.428642802E-3,-2.687728032E-2,1.068982761E-3
2.517989060E-1,5.803049076E-3,-3.298575059E-2,1.068982761E-3
2.541804690E-1,8.246437646E-3,-3.665083647E-2,2.290677279E-3
2.565620310E-1,8.246437646E-3,-4.016320780E-2,3.512371797E-3
2.589435940E-1,7.024743594E-3,-4.504998401E-2,3.512371797E-3
2.613251560E-1,1.084253844E-2,-4.871506989E-2,4.886778072E-3
2.637067190E-1,9.620844387E-3,-4.871506989E-2,4.886778072E-3
2.660882810E-1,1.328592747E-2,-4.749337584E-2,6.108472589E-3
2.684698440E-1,1.328592747E-2,-4.382828996E-2,6.108472589E-3
2.708514060E-1,1.328592747E-2,-4.260659590E-2,6.108472589E-3
2.732329690E-1,1.206423342E-2,-3.649812192E-2,5.955760833E-3
2.756145310E-1,1.313321572E-2,-2.443389036E-2,5.955760833E-3
2.779960940E-1,1.191152167E-2,-1.710372418E-2,5.955760833E-3
2.803776560E-1,1.313321572E-2,-8.704573847E-3,4.734066315E-3
2.827592190E-1,1.420219894E-2,-1.527118147E-4,4.734066315E-3
2.851407810E-1,1.420219894E-2,9.468132630E-3,4.734066315E-3
2.875223440E-1,1.542389300E-2,1.679829881E-2,4.734066315E-3
2.899039060E-1,1.542389300E-2,2.535016090E-2,5.803049076E-3
2.922854690E-1,1.664558798E-2,3.130592033E-2,5.803049076E-3
2.946670310E-1,1.786728203E-2,3.374931216E-2,5.803049076E-3
2.970485940E-1,1.649287529E-2,3.619270027E-2,5.803049076E-3
2.994301560E-1,1.786728203E-2,3.374931216E-2,5.803049076E-3
3.018117190E-1,1.786728203E-2,3.130592033E-2,4.581354558E-3
3.041932810E-1,1.786728203E-2,2.535016090E-2,5.955760833E-3
3.065748440E-1,1.786728203E-2,1.924168877E-2,7.177455351E-3
3.089564060E-1,2.046338283E-2,8.399149403E-3,8.399149403E-3
3.113379690E-1,1.801999472E-2,-3.817795310E-3,8.399149403E-3
3.137195310E-1,1.939439960E-2,-1.221694518E-2,9.620844387E-3
3.161010940E-1,2.061609551E-2,-2.076880634E-2,7.177455351E-3
3.184826560E-1,2.061609551E-2,-2.565558441E-2,4.734066315E-3
3.208642190E-1,2.443389036E-2,-3.161134571E-2,7.330167107E-3
3.232457810E-1,2.443389036E-2,-3.405473381E-2,4.886778072E-3
3.256273440E-1,2.809897438E-2,-3.527642787E-2,7.330167107E-3
3.280089060E-1,2.687728032E-2,-3.649812192E-2,4.886778072E-3
3.303904690E-1,2.687728032E-2,-3.894151375E-2,-0.000000000E0
3.327720310E-1,2.932066843E-2,-3.894151375E-2,-8.551862091E-3
3.351535940E-1,3.161134571E-2,-3.542914242E-2,-1.847812906E-2
3.375351560E-1,3.038965166E-2,-3.665083647E-2,-2.214321308E-2
3.399167190E-1,2.794626169E-2,-4.031591862E-2,-2.214321308E-2
3.422982810E-1,2.428117767E-2,-4.031591862E-2,-2.336490713E-2
3.446797920E-1,2.290677279E-2,-4.031591862E-2,-2.702999115E-2
3.470614060E-1,1.924168877E-2,-4.398100078E-2,-3.069507517E-2
3.494429690E-1,1.435491070E-2,-4.275930673E-2,-3.069507517E-2
3.518244790E-1,1.435491070E-2,-4.031591862E-2,-2.947338112E-2
3.542060940E-1,1.298050396E-2,-3.802524135E-2,-2.825168520E-2
3.565876040E-1,1.298050396E-2,-3.558185324E-2,-3.069507517E-2
3.589691670E-1,1.542389300E-2,-3.069507517E-2,-3.313846514E-2
3.613507290E-1,1.420219894E-2,-2.947338112E-2,-2.947338112E-2
3.637322920E-1,1.298050396E-2,-2.458660305E-2,-2.825168520E-2
3.661139060E-1,1.298050396E-2,-2.214321308E-2,-2.580829710E-2
3.684954170E-1,9.315420873E-3,-2.336490713E-2,-2.214321308E-2
3.708769790E-1,6.872031838E-3,-2.214321308E-2,-1.725643501E-2
3.732585420E-1,4.428642802E-3,-2.336490713E-2,-1.236965694E-2
3.756401040E-1,3.206948051E-3,-2.580829710E-2,-1.114796288E-2
3.780216670E-1,1.985253533E-3,-2.336490713E-2,-8.704573847E-3
3.804032290E-1,1.985253533E-3,-2.214321308E-2,-7.482878864E-3
3.827847920E-1,3.206948051E-3,-2.702999115E-2,-7.482878864E-3
3.851663540E-1,5.650337320E-3,-2.947338112E-2,-8.704573847E-3
3.875479170E-1,6.872031838E-3,-3.298575059E-2,-8.704573847E-3
3.899294790E-1,9.468132630E-3,-3.176405653E-2,-9.926267900E-3
3.923110420E-1,1.191152167E-2,-3.054236248E-2,-6.261184346E-3
3.946926040E-1,1.557660475E-2,-3.298575059E-2,-5.039489828E-3
3.970741670E-1,1.817270555E-2,-3.894151375E-2,-1.374406274E-3
3.994557290E-1,1.817270555E-2,-4.260659590E-2,4.886778072E-3
4.018372920E-1,1.954711229E-2,-4.504998401E-2,8.551862091E-3
4.042188540E-1,2.199050039E-2,-4.871506989E-2,7.330167107E-3
4.066004170E-1,2.321219631E-2,-6.077930331E-2,6.108472589E-3
4.089819790E-1,2.336490713E-2,-7.528692484E-2,7.330167107E-3
4.113635420E-1,2.596100792E-2,-8.979454637E-2,1.236965694E-2
4.137451040E-1,2.733541466E-2,-1.006370857E-1,1.847812906E-2
4.161266670E-1,3.100049868E-2,-1.018587798E-1,2.092151903E-2
4.185082290E-1,3.603998944E-2,-1.043021679E-1,2.092151903E-2
4.208897920E-1,3.848337755E-2,-1.043021679E-1,1.969982497E-2
4.232713540E-1,3.848337755E-2,-1.055238619E-1,2.351761982E-2
4.256529170E-1,3.970507160E-2,-1.065928489E-1,2.840439789E-2
4.280344790E-1,3.970507160E-2,-1.065928489E-1,2.962609194E-2
4.304160420E-1,4.092676565E-2,-1.030804738E-1,2.962609194E-2
4.327976040E-1,4.352286831E-2,-1.006370857E-1,3.084778599E-2
4.351791670E-1,4.474456236E-2,-9.819369763E-2,3.206948191E-2
4.375607290E-1,4.474456236E-2,-9.697200358E-2,3.329117596E-2
4.399422920E-1,4.474456236E-2,-9.697200358E-2,3.451287001E-2
4.423238540E-1,4.474456236E-2,-9.208522737E-2,3.573456407E-2
4.447054170E-1,4.474456236E-2,-8.719844371E-2,3.817795217E-2
4.470869790E-1,4.581354558E-2,-8.353336155E-2,3.573456407E-2
4.494685420E-1,4.199574888E-2,-7.024743408E-2,2.702999115E-2
4.518501040E-1,3.191677108E-2,-3.405473381E-2,1.343864016E-2
4.542316670E-1,2.275406010E-2,1.557660475E-2,-2.596100792E-3
4.566132290E-1,1.756185852E-2,5.680879578E-2,-1.618745178E-2
4.589947920E-1,1.863084175E-2,8.338065445E-2,-2.855710872E-2
4.613763540E-1,1.847812906E-2,9.666658193E-2,-3.100049868E-2
4.637579170E-1,1.985253580E-2,9.544488788E-2,-2.611372061E-2
4.661394790E-1,2.107422985E-2,8.338065445E-2,-2.000524849E-2
4.685210420E-1,2.122694254E-2,6.520794332E-2,-1.511846948E-2
4.709026040E-1,2.015795931E-2,5.070032179E-2,-6.413896102E-3
4.732841670E-1,1.771457121E-2,3.497100621E-2,9.162708884E-4
4.756657290E-1,2.153236605E-2,2.412846684E-2,5.955760833E-3
4.780472920E-1,2.657185495E-2,1.206423342E-2,9.620844387E-3
4.804288540E-1,3.298575059E-2,-3.665083554E-3,1.206423342E-2
4.828104170E-1,3.665083647E-2,-1.450762246E-2,1.343864016E-2
4.851919790E-1,4.046862945E-2,-2.550287358E-2,1.099525020E-2
4.875735420E-1,4.306473210E-2,-3.390202299E-2,1.221694518E-2
4.899551040E-1,4.184303805E-2,-4.489727318E-2,1.221694518E-2
4.923366670E-1,3.817795217E-2,-5.100574717E-2,1.221694518E-2
4.947182290E-1,3.695625812E-2,-5.940489471E-2,1.847812906E-2
4.970997920E-1,3.710897267E-2,-7.040014863E-2,1.969982497E-2
4.994813540E-1,3.710897267E-2,-7.879929990E-2,2.092151903E-2
5.018629170E-1,3.466558084E-2,-8.612946421E-2,2.458660305E-2
5.042444790E-1,3.466558084E-2,-8.964183182E-2,2.702999115E-2
5.066260420E-1,4.092676565E-2,-9.330692142E-2,2.702999115E-2
5.090076040E-1,4.596625641E-2,-9.697200358E-2,2.596100792E-2
5.113891670E-1,4.840964451E-2,-9.819369763E-2,2.351761982E-2
5.137707290E-1,5.207473040E-2,-1.029277667E-1,2.107422985E-2
5.161522920E-1,5.451811850E-2,-1.078145429E-1,1.863084175E-2
5.185338540E-1,5.833591148E-2,-1.114796251E-1,1.496575773E-2
5.209154170E-1,6.077930331E-2,-1.175880954E-1,1.252236869E-2
5.232969790E-1,6.322269142E-2,-1.212531775E-1,8.857285604E-3
5.256785420E-1,6.826218218E-2,-1.223221645E-1,5.192201585E-3
5.280601040E-1,7.070557028E-2,-1.235438585E-1,1.527118147E-3
5.304416670E-1,7.437065244E-2,-1.235438585E-1,1.527118147E-3
5.328232290E-1,7.559234649E-2,-1.212531775E-1,-3.359660041E-3
5.352047920E-1,7.681404054E-2,-1.188097894E-1,-5.803049076E-3
5.375863540E-1,8.047912270E-2,-1.151447073E-1,-7.024743594E-3
5.399679170E-1,8.414421231E-2,-1.065928489E-1,-3.359660041E-3
5.423494790E-1,8.414421231E-2,-9.926267713E-2,1.527118147E-3
5.447310420E-1,8.414421231E-2,-9.208522737E-2,3.054236295E-4
5.471126040E-1,8.414421231E-2,-8.597674966E-2,6.413896102E-3
5.494941670E-1,8.414421231E-2,-8.231166750E-2,1.374406368E-2
5.518757290E-1,8.170082420E-2,-8.215895295E-2,1.985253580E-2
5.542572920E-1,8.185353130E-2,-8.338065445E-2,2.718270384E-2
5.566388540E-1,7.818844914E-2,-8.704573661E-2,3.451287001E-2
5.590204170E-1,7.696675509E-2,-9.193251282E-2,3.695625812E-2
5.614019790E-1,7.574506104E-2,-9.300149232E-2,4.062134400E-2
5.637835420E-1,7.452336699E-2,-9.666658193E-2,4.184303805E-2
5.661650520E-1,7.085828483E-2,-1.027750522E-1,4.184303805E-2
5.685466670E-1,6.719319522E-2,-1.101052165E-1,4.199574888E-2
5.709282290E-1,6.093201414E-2,-1.149920002E-1,4.062134400E-2
5.733097920E-1,5.360184610E-2,-1.247655526E-1,4.184303805E-2
5.756913540E-1,4.489727318E-2,-1.343863904E-1,4.199574888E-2
5.780729170E-1,3.756710514E-2,-1.404948682E-1,4.443913698E-2
5.804544790E-1,3.145863488E-2,-1.478250325E-1,4.443913698E-2
5.828360420E-1,2.397575416E-2,-1.527118087E-1,4.306473210E-2
5.852175520E-1,1.908897609E-2,-1.575985998E-1,4.062134400E-2
5.875991150E-1,1.527118124E-2,-1.612636745E-1,3.939964995E-2
5.899806770E-1,1.038440317E-2,-1.601946950E-1,3.451287001E-2
5.923622400E-1,1.038440317E-2,-1.626380831E-1,3.084778599E-2
5.947438020E-1,5.344913341E-3,-1.650814712E-1,2.718270384E-2
5.971253650E-1,1.679830020E-3,-1.663031727E-1,2.351761982E-2
5.995069270E-1,-9.162708884E-4,-1.675248593E-1,1.618745178E-2
6.018884900E-1,-4.581354558E-3,-1.676775664E-1,1.114796288E-2
6.042701040E-1,-8.399149403E-3,-1.688992679E-1,7.482878864E-3
6.066516150E-1,-1.343864016E-2,-1.701209545E-1,-1.068982761E-3
6.090331770E-1,-1.710372418E-2,-1.690519750E-1,-5.955760833E-3
6.114147400E-1,-1.969982497E-2,-1.617218107E-1,-1.206423342E-2
6.137963020E-1,-2.351761982E-2,-1.582094431E-1,-1.710372418E-2
6.161778650E-1,-2.229592577E-2,-1.533226669E-1,-2.199050039E-2
6.185594270E-1,-2.351761982E-2,-1.484358907E-1,-2.321219631E-2
6.209409900E-1,-2.596100792E-2,-1.472141892E-1,-2.321219631E-2
6.233225520E-1,-2.611372061E-2,-1.400367320E-1,-2.443389036E-2
6.257041150E-1,-2.489202656E-2,-1.339282542E-1,-2.199050039E-2
6.280856770E-1,-2.489202656E-2,-1.265980899E-1,-2.321219631E-2
6.304672400E-1,-2.611372061E-2,-1.218640283E-1,-2.321219631E-2
6.328488020E-1,-2.611372061E-2,-1.157555580E-1,-2.199050039E-2
6.352303650E-1,-2.367033064E-2,-1.181989461E-1,-2.443389036E-2
6.376119270E-1,-2.244863659E-2,-1.206423342E-1,-2.932066843E-2
6.399934900E-1,-2.000524849E-2,-1.230857223E-1,-3.298575059E-2
6.423750520E-1,-1.634016447E-2,-1.194206402E-1,-3.680354729E-2
6.447566150E-1,-1.145338640E-2,-1.145338640E-1,-4.169032723E-2
6.471381770E-1,-6.566607859E-3,-1.145338640E-1,-4.535540938E-2
6.495197400E-1,-6.566607859E-3,-1.145338640E-1,-4.779879749E-2
6.519013020E-1,-2.748812549E-3,-1.145338640E-1,-4.657710344E-2
6.542828650E-1,-1.527118147E-3,-1.084253863E-1,-4.657710344E-2
6.566644270E-1,-3.054236295E-4,-1.036913246E-1,-4.902049154E-2
6.590459900E-1,1.985253533E-3,-9.758284688E-2,-5.390727147E-2
6.614275520E-1,4.428642802E-3,-9.391776472E-2,-5.879404768E-2
6.638091150E-1,6.872031838E-3,-9.025268257E-2,-6.368082762E-2
6.661906770E-1,6.872031838E-3,-9.513945878E-2,-6.368082762E-2
6.685722400E-1,1.191152167E-2,-9.880454093E-2,-6.612421572E-2
6.709538020E-1,1.191152167E-2,-1.036913246E-1,-6.245913357E-2
6.733353650E-1,1.450762246E-2,-1.120904684E-1,-5.497625470E-2
6.757169270E-1,1.572931744E-2,-1.133121699E-1,-5.131116882E-2
6.780984900E-1,1.206423342E-2,-1.133121699E-1,-4.764608666E-2
6.804800520E-1,1.206423342E-2,-1.108687744E-1,-4.886778072E-2
6.828616150E-1,1.206423342E-2,-1.084253863E-1,-5.390727147E-2
6.852431770E-1,1.450762246E-2,-1.035386100E-1,-5.879404768E-2
6.876247400E-1,1.939439960E-2,-1.010952219E-1,-6.368082762E-2
6.900063020E-1,2.428117767E-2,-1.035386100E-1,-6.856760383E-2
6.923878650E-1,2.932066843E-2,-1.120904684E-1,-6.597150117E-2
6.947694270E-1,3.436015919E-2,-1.217113137E-1,-6.597150117E-2
6.971509900E-1,3.695625812E-2,-1.313321590E-1,-6.352811307E-2
6.995325520E-1,3.451287001E-2,-1.386623234E-1,-5.986303091E-2
7.019141150E-1,3.817795217E-2,-1.386623234E-1,-5.375456065E-2
7.042956770E-1,4.184303805E-2,-1.288887709E-1,-5.008947477E-2
7.066772400E-1,4.184303805E-2,-1.070509851E-1,-4.642439261E-2
7.090588020E-1,3.802524135E-2,-8.154810965E-2,-4.031591862E-2
7.114403650E-1,3.054236248E-2,-6.337540597E-2,-3.054236248E-2
7.138219270E-1,2.565558441E-2,-6.322269142E-2,-1.588202827E-2
7.162034900E-1,2.580829710E-2,-8.506047726E-2,-8.551862091E-3
7.185850520E-1,3.588727489E-2,-1.189625040E-1,-1.084253844E-2
7.209666150E-1,4.718795046E-2,-1.517955512E-1,-1.801999472E-2
7.233481770E-1,5.726693198E-2,-1.808107942E-1,-2.535016090E-2
7.257297400E-1,6.841489673E-2,-2.075353563E-1,-3.130592033E-2
7.281113020E-1,7.482878864E-2,-2.328855246E-1,-3.741439432E-2
7.304928650E-1,8.353336155E-2,-2.559449971E-1,-3.726168349E-2
7.328744270E-1,8.979454637E-2,-2.777827978E-1,-3.970507160E-2
7.352559900E-1,9.483403713E-2,-2.947337925E-1,-4.337015375E-2
7.376375520E-1,9.865183383E-2,-3.190149665E-1,-4.810422286E-2
7.400191150E-1,1.024696305E-1,-3.347443044E-1,-5.299099907E-2
7.424006770E-1,1.050657257E-1,-3.506263196E-1,-6.032116711E-2
7.447822400E-1,1.038440317E-1,-3.651339412E-1,-6.887302548E-2
7.471638020E-1,1.012479365E-1,-3.712424338E-1,-7.375980914E-2
7.495453650E-1,1.000262350E-1,-3.724641204E-1,-7.620319724E-2
7.519269270E-1,8.750387281E-2,-3.520007432E-1,-7.498150319E-2
7.543084900E-1,7.009471953E-2,-3.252761662E-1,-7.513421029E-2
7.566900520E-1,5.757235363E-2,-2.999260128E-1,-7.040014863E-2
7.590716150E-1,5.146388337E-2,-2.962609231E-1,-6.306997687E-2
7.614531770E-1,4.657710344E-2,-2.999260128E-1,-5.329642445E-2
7.638347400E-1,2.901524492E-2,-2.684673667E-1,-5.329642445E-2
7.662163020E-1,1.527118147E-4,-2.176143378E-1,-5.360184610E-2
7.685978650E-1,-2.611372061E-2,-1.656923145E-1,-5.741964281E-2
7.709794270E-1,-6.505523622E-2,-8.475505561E-2,-7.375980914E-2
7.733609900E-1,-9.666658193E-2,1.206423342E-2,-8.994726092E-2
7.757425520E-1,-1.134648770E-1,1.102579311E-1,-1.026223376E-1
7.781241150E-1,-1.111742035E-1,1.696628332E-1,-9.788827598E-2
7.805056770E-1,-1.001789495E-1,2.024958730E-1,-8.689302206E-2
7.828872400E-1,-8.032641560E-2,2.112004459E-1,-7.085828483E-2
7.852688020E-1,-6.658235192E-2,2.125748396E-1,-5.619794875E-2
7.876503650E-1,-5.161659420E-2,2.102841735E-1,-4.871506989E-2
7.900319270E-1,-4.046862945E-2,2.127275616E-1,-4.871506989E-2
7.924134900E-1,-3.054236248E-2,2.127275616E-1,-5.604523420E-2
7.947950520E-1,-2.076880634E-2,2.102841735E-1,-6.215370819E-2
7.971766150E-1,-1.206423342E-2,2.153236568E-1,-5.222744122E-2
7.995581770E-1,-8.399149403E-3,2.249445021E-1,-5.238015205E-2
8.019397400E-1,6.566607859E-3,2.250972092E-1,-5.589252338E-2
8.043213020E-1,2.504473738E-2,2.250972092E-1,-5.955760926E-2
8.067028650E-1,3.619270027E-2,2.238755226E-1,-7.299624383E-2
8.090844270E-1,4.352286831E-2,2.153236568E-1,-8.765657991E-2
8.114659900E-1,4.734066129E-2,1.934858710E-1,-9.743013978E-2
8.138475520E-1,3.894151375E-2,1.534753740E-1,-1.035386100E-1
8.162291150E-1,2.672456764E-2,1.023169160E-1,-1.094943732E-1
8.186106770E-1,1.450762246E-2,5.375456065E-2,-1.130067408E-1
8.209922400E-1,3.665083554E-3,5.192201585E-3,-1.191152185E-1
8.233738020E-1,-1.221694518E-3,-3.970507160E-2,-1.250709742E-1
8.257553650E-1,3.054236295E-4,-6.765133142E-2,-1.250709742E-1
8.281369270E-1,1.527118147E-3,-8.704573661E-2,-1.226275861E-1
8.305184900E-1,3.054236295E-3,-1.052184403E-1,-1.127013192E-1
8.329000520E-1,5.650337320E-3,-1.195733473E-1,-1.027750522E-1
8.352816150E-1,4.428642802E-3,-1.378987730E-1,-9.910997003E-2
8.376631770E-1,4.581354558E-3,-1.583621502E-1,-9.544488788E-2
8.400447400E-1,8.399149403E-3,-1.681357026E-1,-8.674030751E-2
8.424263020E-1,1.099525020E-2,-1.740914732E-1,-8.063183725E-2
8.448078650E-1,1.588202827E-2,-1.704263836E-1,-7.452336699E-2
8.471894270E-1,2.092151903E-2,-1.655396074E-1,-6.719319522E-2
8.495709900E-1,2.336490713E-2,-1.557660550E-1,-5.986303091E-2
8.519525520E-1,2.840439789E-2,-1.435490996E-1,-4.764608666E-2
8.543341150E-1,3.206948191E-2,-1.325538605E-1,-3.649812192E-2
8.567156770E-1,3.451287001E-2,-1.252236813E-1,-3.405473381E-2
8.590972400E-1,3.084778599E-2,-1.240019947E-1,-3.420744836E-2
8.614788020E-1,2.718270384E-2,-1.215586066E-1,-2.932066843E-2
8.638603650E-1,2.336490713E-2,-1.178935245E-1,-1.939439960E-2
8.662419270E-1,2.596100792E-2,-1.117850468E-1,-7.177455351E-3
8.686234900E-1,2.596100792E-2,-1.032331884E-1,6.261184346E-3
8.710050520E-1,2.473931387E-2,-8.735115826E-2,1.847812906E-2
8.733866150E-1,2.229592577E-2,-7.284353673E-2,2.947338112E-2
8.757681770E-1,1.847812906E-2,-4.978405312E-2,3.665083647E-2
8.781497400E-1,1.206423342E-2,-2.550287358E-2,3.176405653E-2
8.805313020E-1,8.246437646E-3,-9.773556143E-3,2.183778957E-2
8.829128650E-1,-6.108472589E-4,3.359660041E-3,1.206423342E-2
8.852944270E-1,-4.428642802E-3,1.542389300E-2,-1.527118147E-3
8.876759900E-1,-9.468132630E-3,2.626643144E-2,-1.130067464E-2
8.900575520E-1,-1.206423342E-2,3.833066672E-2,-2.000524849E-2
8.924391150E-1,-1.588202827E-2,4.321744293E-2,-2.855710872E-2
8.948206770E-1,-1.725643501E-2,4.428642616E-2,-3.466558084E-2
8.972022400E-1,-1.725643501E-2,4.672981426E-2,-3.466558084E-2
8.995838020E-1,-1.969982497E-2,4.550812021E-2,-3.588727489E-2
9.019653650E-1,-1.969982497E-2,3.939964995E-2,-3.710897267E-2
9.043469270E-1,-2.092151903E-2,3.344388679E-2,-3.710897267E-2
9.067284900E-1,-2.092151903E-2,2.855710872E-2,-3.955236077E-2
9.091100520E-1,-2.092151903E-2,2.489202656E-2,-4.321744293E-2
9.114916150E-1,-1.710372418E-2,1.511846948E-2,-4.566083103E-2
9.138731770E-1,-1.710372418E-2,1.389677543E-2,-4.688252881E-2
9.162547400E-1,-1.710372418E-2,9.162709117E-3,-4.688252881E-2
9.186363020E-1,-1.572931744E-2,3.054236295E-3,-4.688252881E-2
9.210178650E-1,-1.832541823E-2,-3.054236295E-3,-4.810422286E-2
9.233994270E-1,-1.695101149E-2,-9.162709117E-3,-4.810422286E-2
9.257809900E-1,-1.695101149E-2,-1.634016447E-2,-4.688252881E-2
9.281625520E-1,-1.695101149E-2,-2.122694254E-2,-4.428642616E-2
9.305441150E-1,-1.313321572E-2,-2.122694254E-2,-4.062134400E-2
9.329256770E-1,-9.468132630E-3,-2.229592577E-2,-3.939964995E-2
9.353072400E-1,-9.468132630E-3,-2.473931387E-2,-3.695625812E-2
9.376888020E-1,-9.315420873E-3,-2.596100792E-2,-3.573456407E-2
9.400703650E-1,-1.420219894E-2,-3.573456407E-2,-3.206948191E-2
9.424519270E-1,-2.412846684E-2,-4.902049154E-2,-2.718270384E-2
9.448334900E-1,-2.779355086E-2,-5.390727147E-2,-2.351761982E-2
9.472150520E-1,-2.519745007E-2,-5.390727147E-2,-1.603474095E-2
9.495966150E-1,-2.275406010E-2,-5.268557742E-2,-1.969982497E-2
9.519781770E-1,-2.290677279E-2,-5.024218559E-2,-2.840439789E-2
9.543597400E-1,-2.290677279E-2,-5.039490014E-2,-4.184303805E-2
9.567413020E-1,-2.305948362E-2,-4.672981426E-2,-5.161659420E-2
9.591228650E-1,-1.924168877E-2,-4.428642616E-2,-5.405998230E-2
9.615044270E-1,-1.924168877E-2,-5.283828825E-2,-5.283828825E-2
9.638859900E-1,-1.420219894E-2,-5.879404768E-2,-4.795150831E-2
9.662675520E-1,-1.420219894E-2,-6.490252167E-2,-4.062134400E-2
9.686491150E-1,-7.941014133E-3,-6.841489673E-2,-3.191677108E-2
9.710306770E-1,-1.023169141E-2,-7.559234649E-2,-2.458660305E-2
9.734122400E-1,-9.009997360E-3,-7.681404054E-2,-2.214321308E-2
9.757938020E-1,-7.788302377E-3,-7.559234649E-2,-1.725643501E-2
9.781753650E-1,-5.344913341E-3,-7.437065244E-2,-1.603474095E-2
9.805569270E-1,-1.527118147E-3,-7.314895838E-2,-1.114796288E-2
9.829384900E-1,-3.054236295E-4,-7.314895838E-2,-8.551862091E-3
9.853200520E-1,4.734066315E-3,-7.070557028E-2,-6.108472589E-3
9.877016150E-1,8.399149403E-3,-6.933116168E-2,-7.330167107E-3
9.900831770E-1,9.620844387E-3,-6.933116168E-2,-7.330167107E-3
9.924647400E-1,1.084253844E-2,-6.704048812E-2,-8.551862091E-3
9.948463020E-1,1.084253844E-2,-6.337540597E-2,-9.773556143E-3
9.972278650E-1,1.084253844E-2,-6.337540597E-2,-1.099525020E-2
9.996094270E-1,9.468132630E-3,-6.337540597E-2,-1.221694518E-2
1.001990990E0,8.246437646E-3,-6.337540597E-2,-1.481304597E-2
1.004372552E0,7.024743594E-3,-6.215370819E-2,-1.481304597E-2
1.006754115E0,8.246437646E-3,-6.337540597E-2,-1.359135192E-2
1.009135677E0,8.246437646E-3,-6.337540597E-2,-1.359135192E-2
1.011517240E0,5.803049076E-3,-6.337540597E-2,-1.236965694E-2
1.013898802E0,5.803049076E-3,-6.337540597E-2,-1.236965694E-2
1.016280365E0,3.359660041E-3,-6.215370819E-2,-1.236965694E-2
1.018661927E0,2.137965523E-3,-6.093201414E-2,-1.359135192E-2
1.021043490E0,-4.581354442E-4,-6.337540597E-2,-1.481304597E-2
1.023425052E0,-4.581354442E-4,-6.215370819E-2,-1.725643501E-2
1.025806615E0,-1.679830020E-3,-5.741964281E-2,-1.725643501E-2
1.028188177E0,-1.679830020E-3,-5.497625470E-2,-1.725643501E-2
1.030569792E0,-2.901524538E-3,-5.497625470E-2,-1.603474095E-2
1.032951302E0,-1.679830020E-3,-5.375456065E-2,-1.481304597E-2
1.035332865E0,-4.581354442E-4,-5.497625470E-2,-1.359135192E-2
1.037714427E0,9.162708884E-4,-5.971032009E-2,-1.236965694E-2
1.040096042E0,2.137965523E-3,-6.093201414E-2,-9.926267900E-3
1.042477604E0,4.581354558E-3,-6.337540597E-2,-7.330167107E-3
1.044859167E0,2.137965523E-3,-6.581879407E-2,-8.704573847E-3
1.047240729E0,2.137965523E-3,-6.948387623E-2,-7.330167107E-3
1.049622292E0,7.177455351E-3,-7.299624383E-2,-7.330167107E-3
1.052003854E0,8.399149403E-3,-7.666133344E-2,-7.330167107E-3
1.054385417E0,7.177455351E-3,-8.154810965E-2,-6.108472589E-3
1.056766979E0,8.399149403E-3,-8.521319181E-2,-7.330167107E-3
1.059148542E0,1.221694518E-2,-8.994726092E-2,-6.108472589E-3
1.061530104E0,1.221694518E-2,-9.361234307E-2,-7.330167107E-3
1.063911667E0,1.343864016E-2,-9.483403713E-2,-1.221694518E-2
1.066293229E0,1.710372418E-2,-9.605573118E-2,-1.588202827E-2
1.068674792E0,1.954711229E-2,-9.605573118E-2,-1.954711229E-2
1.071056354E0,2.336490713E-2,-9.361234307E-2,-2.076880634E-2
1.073437917E0,2.458660305E-2,-8.750387281E-2,-1.832541823E-2
1.075819479E0,2.702999115E-2,-8.032641560E-2,-1.343864016E-2
1.078201042E0,3.069507517E-2,-7.055285573E-2,-9.773556143E-3
1.080582604E0,3.680354729E-2,-6.077930331E-2,-4.886778072E-3
1.082964167E0,4.046862945E-2,-4.978405312E-2,-3.665083554E-3
1.085345729E0,4.291202128E-2,-4.123219103E-2,-2.443389036E-3
1.087727292E0,4.535540938E-2,-3.527642787E-2,1.221694518E-3
1.090108854E0,4.672981426E-2,-3.283303976E-2,3.665083554E-3
1.092490417E0,4.917320609E-2,-3.268032894E-2,6.108472589E-3
1.094871979E0,4.917320609E-2,-3.268032894E-2,6.108472589E-3
1.097253542E0,5.039490014E-2,-3.268032894E-2,7.330167107E-3
1.099635104E0,5.039490014E-2,-3.634541109E-2,7.330167107E-3
1.102016667E0,4.917320609E-2,-3.756710514E-2,7.330167107E-3
1.104398229E0,5.039490014E-2,-4.367557913E-2,4.886778072E-3
1.106779792E0,5.039490014E-2,-4.856235534E-2,2.443389036E-3
1.109161354E0,4.917320609E-2,-4.978405312E-2,-0.000000000E0
1.111542917E0,4.917320609E-2,-4.978405312E-2,-3.665083554E-3
1.113924479E0,4.917320609E-2,-4.978405312E-2,-3.665083554E-3
1.116306042E0,4.795150831E-2,-5.100574717E-2,-4.886778072E-3
1.118687604E0,4.795150831E-2,-5.222744122E-2,-7.330167107E-3
1.121069167E0,4.428642616E-2,-5.589252338E-2,-8.551862091E-3
1.123450729E0,4.428642616E-2,-5.711421743E-2,-9.773556143E-3
1.125832292E0,4.169032723E-2,-5.711421743E-2,-1.343864016E-2
1.128213854E0,3.558185324E-2,-5.955760926E-2,-1.832541823E-2
1.130595417E0,3.176405653E-2,-6.566607952E-2,-2.443389036E-2
1.132976979E0,2.687728032E-2,-6.826218218E-2,-2.687728032E-2
1.135358542E0,2.183778957E-2,-7.070557028E-2,-2.687728032E-2
1.137740104E0,1.695101149E-2,-7.070557028E-2,-2.702999115E-2
1.140121667E0,1.572931744E-2,-6.826218218E-2,-2.580829710E-2
1.142503229E0,9.468132630E-3,-6.459710002E-2,-2.702999115E-2
1.144884792E0,3.206948051E-3,-5.986303091E-2,-2.580829710E-2
1.147266354E0,7.635590737E-4,-5.375456065E-2,-2.458660305E-2
1.149647917E0,-3.054236295E-3,-4.657710344E-2,-2.458660305E-2
1.152029479E0,-7.941014133E-3,-4.291202128E-2,-2.458660305E-2
1.154411042E0,-1.175880991E-2,-3.802524135E-2,-2.596100792E-2
1.156792604E0,-1.557660475E-2,-3.206948191E-2,-2.718270384E-2
1.159174167E0,-1.924168877E-2,-2.962609194E-2,-2.473931387E-2
1.161555729E0,-2.168507688E-2,-2.596100792E-2,-2.351761982E-2
1.163937292E0,-2.672456764E-2,-2.229592577E-2,-2.229592577E-2
1.166318854E0,-2.916795574E-2,-2.229592577E-2,-2.107422985E-2
1.168700417E0,-3.161134571E-2,-2.367033064E-2,-2.229592577E-2
1.171081979E0,-3.283303976E-2,-2.596100792E-2,-2.107422985E-2
1.173463542E0,-3.283303976E-2,-2.718270384E-2,-2.107422985E-2
1.175845104E0,-3.405473381E-2,-3.084778599E-2,-2.229592577E-2
1.178226667E0,-3.649812192E-2,-3.451287001E-2,-2.351761982E-2
1.180608229E0,-3.527642787E-2,-3.817795217E-2,-1.985253580E-2
1.182989792E0,-3.527642787E-2,-4.428642616E-2,-2.107422985E-2
1.185371354E0,-3.649812192E-2,-4.917320609E-2,-2.229592577E-2
1.187752917E0,-3.390202299E-2,-5.390727147E-2,-2.473931387E-2
1.190134479E0,-3.268032894E-2,-6.245913357E-2,-2.351761982E-2
1.192516042E0,-3.268032894E-2,-7.085828483E-2,-2.092151903E-2
1.194897604E0,-3.008422814E-2,-8.307522535E-2,-2.092151903E-2
1.197279167E0,-3.008422814E-2,-9.147437662E-2,-2.092151903E-2
1.199660729E0,-2.993151546E-2,-9.880454093E-2,-1.969982497E-2
1.202042292E0,-2.626643144E-2,-1.047603041E-1,-1.847812906E-2
1.204423854E0,-2.626643144E-2,-1.084253863E-1,-1.847812906E-2
1.206805417E0,-2.367033064E-2,-1.108687744E-1,-1.954711229E-2
1.209186979E0,-2.489202656E-2,-1.120904684E-1,-2.092151903E-2
1.211568542E0,-2.367033064E-2,-1.157555580E-1,-1.954711229E-2
1.213950104E0,-2.122694254E-2,-1.194206402E-1,-1.954711229E-2
1.216331667E0,-2.122694254E-2,-1.206423342E-1,-2.076880634E-2
1.218713229E0,-1.878355257E-2,-1.217113137E-1,-2.076880634E-2
1.221094792E0,-1.740914769E-2,-1.217113137E-1,-2.076880634E-2
1.223476354E0,-1.740914769E-2,-1.217113137E-1,-2.199050039E-2
1.225857917E0,-1.863084175E-2,-1.253764033E-1,-2.076880634E-2
1.228239479E0,-1.863084175E-2,-1.253764033E-1,-1.954711229E-2
1.230621042E0,-1.740914769E-2,-1.278197914E-1,-1.710372418E-2
1.233002604E0,-1.863084175E-2,-1.278197914E-1,-1.954711229E-2
1.235384167E0,-1.740914769E-2,-1.278197914E-1,-1.588202827E-2
1.237765729E0,-1.863084175E-2,-1.253764033E-1,-1.343864016E-2
1.240147292E0,-1.740914769E-2,-1.229330078E-1,-1.343864016E-2
1.242528854E0,-1.863084175E-2,-1.217113137E-1,-1.466033421E-2
1.244910417E0,-1.740914769E-2,-1.241547018E-1,-1.221694518E-2
1.247291979E0,-1.740914769E-2,-1.253764033E-1,-1.099525020E-2
1.249673542E0,-1.359135192E-2,-1.301104724E-1,-9.773556143E-3
1.252055104E0,-1.236965694E-2,-1.325538605E-1,-7.330167107E-3
1.254436667E0,-8.704573847E-3,-1.349972486E-1,-4.734066315E-3
1.256818229E0,-4.886778072E-3,-1.386623234E-1,-2.290677279E-3
1.259199844E0,-2.443389036E-3,-1.385096163E-1,1.527118147E-4
1.261581354E0,-1.068982761E-3,-1.409530044E-1,1.527118147E-4
1.263962969E0,1.374406274E-3,-1.446180940E-1,-1.068982761E-3
1.266344479E0,1.374406274E-3,-1.507265568E-1,1.374406274E-3
1.268726042E0,3.970507067E-3,-1.566823274E-1,2.596100792E-3
1.271107656E0,3.970507067E-3,-1.627907902E-1,2.596100792E-3
1.273489219E0,6.413896102E-3,-1.676775664E-1,3.970507067E-3
1.275870781E0,6.566607859E-3,-1.724116355E-1,3.970507067E-3
1.278252344E0,9.009997360E-3,-1.785201132E-1,2.748812549E-3
1.280633906E0,1.267508045E-2,-1.809635013E-1,2.748812549E-3
1.283015469E0,1.649287529E-2,-1.869192570E-1,2.748812549E-3
1.285397031E0,1.893626526E-2,-1.905843467E-1,1.527118147E-3
1.287778594E0,2.031067200E-2,-1.930277348E-1,5.192201585E-3
1.290160104E0,2.275406010E-2,-1.918060333E-1,5.192201585E-3
1.292541719E0,2.641914412E-2,-1.930277348E-1,6.413896102E-3
1.294923281E0,2.886253223E-2,-1.893626451E-1,6.413896102E-3
1.297304844E0,2.886253223E-2,-1.820324808E-1,6.413896102E-3
1.299686406E0,2.886253223E-2,-1.722589284E-1,7.635590620E-3
1.302067969E0,3.130592033E-2,-1.601946950E-1,7.635590620E-3
1.304449531E0,3.237490356E-2,-1.516428292E-1,8.857285604E-3
1.306831094E0,3.359659761E-2,-1.408002973E-1,6.413896102E-3
1.309212656E0,3.603998944E-2,-1.285833418E-1,2.596100792E-3
1.311594219E0,3.710897267E-2,-1.165191159E-1,1.374406274E-3
1.313975781E0,3.588727489E-2,-1.091889441E-1,-2.290677279E-3
1.316357344E0,3.344388679E-2,-1.032331884E-1,1.527118147E-4
1.318738906E0,3.466558084E-2,-9.712471068E-2,3.817795310E-3
1.321120469E0,3.710897267E-2,-9.345962852E-2,8.704573847E-3
1.323502031E0,4.077405483E-2,-8.612946421E-2,1.236965694E-2
1.325883594E0,4.199574888E-2,-8.002099395E-2,1.603474095E-2
1.328265156E0,4.825693369E-2,-7.635590434E-2,1.847812906E-2
1.330646719E0,5.192201585E-2,-7.024743408E-2,2.336490713E-2
1.333028281E0,5.818320066E-2,-6.658235192E-2,2.214321308E-2
1.335409844E0,6.062658876E-2,-6.169557199E-2,2.458660305E-2
1.337791406E0,6.306997687E-2,-6.047387794E-2,2.825168520E-2
1.340172969E0,6.551336497E-2,-5.925218388E-2,2.947338112E-2
1.342554531E0,6.810946763E-2,-5.803048983E-2,3.313846514E-2
1.344936094E0,7.299624383E-2,-5.787777901E-2,3.939964995E-2
1.347317656E0,7.559234649E-2,-6.032116711E-2,4.428642616E-2
1.349699219E0,7.681404054E-2,-6.276455522E-2,4.917320609E-2
1.352080781E0,8.063183725E-2,-6.261184067E-2,5.161659420E-2
1.354462344E0,8.429691941E-2,-6.505523622E-2,5.161659420E-2
1.356843906E0,8.551861346E-2,-6.383354217E-2,5.283828825E-2
1.359225469E0,8.796200156E-2,-6.139015034E-2,5.283828825E-2
1.361607031E0,9.177979827E-2,-6.016845629E-2,5.405998230E-2
1.363988594E0,9.300149232E-2,-6.139015034E-2,5.161659420E-2
1.366370156E0,9.788827598E-2,-6.627693027E-2,4.932591692E-2
1.368751719E0,1.004843712E-1,-7.101099193E-2,5.054761097E-2
1.371133281E0,1.041494608E-1,-7.223268598E-2,5.054761097E-2
1.373514844E0,1.128540337E-1,-7.834116369E-2,4.443913698E-2
1.375896406E0,1.166718230E-1,-8.429691941E-2,4.321744293E-2
1.378277969E0,1.252236813E-1,-8.918370306E-2,3.955236077E-2
1.380659531E0,1.302631795E-1,-9.284878522E-2,3.710897267E-2
1.383041094E0,1.353026628E-1,-9.636115283E-2,3.710897267E-2
1.385422656E0,1.377460510E-1,-9.880454093E-2,3.603998944E-2
1.387804219E0,1.365243644E-1,-9.880454093E-2,3.481829539E-2
1.390185781E0,1.389677525E-1,-9.513945878E-2,3.222219273E-2
1.392567344E0,1.363716573E-1,-8.918370306E-2,3.344388679E-2
1.394948906E0,1.351499557E-1,-8.063183725E-2,3.344388679E-2
1.397330469E0,1.301104724E-1,-6.856760383E-2,3.466558084E-2
1.399712031E0,1.275143623E-1,-5.528167635E-2,3.466558084E-2
1.402093594E0,1.287360638E-1,-4.428642616E-2,3.329117596E-2
1.404475156E0,1.249182671E-1,-3.833066672E-2,3.084778599E-2
1.406856719E0,1.249182671E-1,-2.855710872E-2,3.084778599E-2
1.409238281E0,1.223221645E-1,-2.015795931E-2,3.206948191E-2
1.411619844E0,1.211004704E-1,-1.282779220E-2,3.206948191E-2
1.414001406E0,1.174353883E-1,-9.162709117E-3,3.329117596E-2
1.416382969E0,1.136175916E-1,-3.206948051E-3,3.313846514E-2
1.418764531E0,1.087308154E-1,-4.428642802E-3,3.558185324E-2
1.421146094E0,1.036913246E-1,-1.985253533E-3,3.802524135E-2
1.423527708E0,9.880454093E-2,-1.985253533E-3,3.802524135E-2
1.425909271E0,9.620844573E-2,4.581354442E-4,3.680354729E-2
1.428290781E0,8.887827396E-2,3.054236295E-4,3.558185324E-2
1.430672396E0,8.383878320E-2,-9.162708884E-4,3.680354729E-2
1.433053958E0,8.017370105E-2,1.527118147E-3,3.680354729E-2
1.435435521E0,7.391251624E-2,3.970507067E-3,3.680354729E-2
1.437817083E0,6.520794332E-2,7.482878864E-3,3.420744836E-2
1.440198646E0,5.894676223E-2,1.588202827E-2,3.176405653E-2
1.442580208E0,5.268557742E-2,2.565558441E-2,3.176405653E-2
1.444961771E0,4.779879749E-2,3.161134571E-2,3.038965166E-2
1.447343333E0,4.413371533E-2,2.565558441E-2,3.420744836E-2
1.449724896E0,4.031591862E-2,1.588202827E-2,3.176405653E-2
1.452106458E0,4.046862945E-2,3.817795310E-3,3.665083647E-2
1.454488021E0,4.046862945E-2,-7.177455351E-3,3.542914242E-2
1.456869583E0,4.062134400E-2,-1.679829881E-2,3.542914242E-2
1.459251146E0,4.184303805E-2,-2.412846684E-2,3.542914242E-2
1.461632708E0,4.184303805E-2,-2.901524492E-2,3.420744836E-2
1.464014271E0,4.428642616E-2,-3.145863488E-2,3.054236248E-2
1.466395833E0,4.688252881E-2,-3.390202299E-2,2.825168520E-2
1.468777396E0,4.566083103E-2,-3.756710514E-2,2.702999115E-2
1.471158958E0,4.428642616E-2,-3.878879920E-2,2.443389036E-2
1.473540521E0,4.184303805E-2,-4.001049697E-2,2.825168520E-2
1.475922083E0,4.184303805E-2,-3.985778242E-2,3.069507517E-2
1.478303646E0,4.321744293E-2,-3.863608837E-2,3.191677108E-2
1.480685208E0,4.184303805E-2,-4.230117425E-2,3.069507517E-2
1.483066771E0,3.939964995E-2,-4.474456236E-2,3.069507517E-2
1.485448333E0,3.817795217E-2,-4.718795046E-2,3.069507517E-2
1.487829896E0,3.573456407E-2,-5.207473040E-2,3.069507517E-2
1.490211458E0,3.451287001E-2,-5.818320066E-2,2.947338112E-2
1.492593021E0,2.962609194E-2,-6.795676053E-2,2.825168520E-2
1.494974583E0,2.718270384E-2,-7.635590434E-2,2.825168520E-2
1.497356146E0,2.351761982E-2,-8.002099395E-2,2.825168520E-2
1.499737708E0,2.351761982E-2,-8.612946421E-2,2.458660305E-2
1.502119271E0,2.107422985E-2,-8.857285231E-2,2.458660305E-2
1.504500833E0,1.985253580E-2,-9.223793447E-2,2.336490713E-2
1.506882396E0,1.740914769E-2,-9.712471068E-2,2.336490713E-2
1.509263958E0,1.740914769E-2,-1.007898003E-1,1.847812906E-2
1.511645521E0,1.236965694E-2,-1.044548824E-1,1.603474095E-2
1.514027083E0,1.114796288E-2,-1.056765765E-1,1.359135192E-2
1.516408646E0,9.926267900E-3,-1.056765765E-1,1.236965694E-2
1.518790208E0,8.704573847E-3,-1.056765765E-1,9.926267900E-3
1.521171771E0,6.108472589E-3,-1.068982705E-1,7.482878864E-3
1.523553333E0,2.443389036E-3,-1.058292910E-1,6.108472589E-3
1.525934896E0,-1.374406274E-3,-1.033858955E-1,2.443389036E-3
1.528316458E0,-5.039489828E-3,-1.033858955E-1,-1.221694518E-3
1.530698021E0,-6.261184346E-3,-1.021642014E-1,-2.443389036E-3
1.533079583E0,-8.857285604E-3,-9.972081333E-2,-1.221694518E-3
1.535461146E0,-1.496575773E-2,-1.010952219E-1,-3.665083554E-3
1.537842708E0,-1.756185852E-2,-9.865183383E-2,-6.108472589E-3
1.540224323E0,-2.000524849E-2,-9.865183383E-2,-8.551862091E-3
1.542605833E0,-2.626643144E-2,-1.023169160E-1,-1.114796288E-2
1.544987396E0,-3.237490356E-2,-1.047603041E-1,-1.359135192E-2
1.547369010E0,-3.497100621E-2,-1.036913246E-1,-1.603474095E-2
1.549750573E0,-4.230117425E-2,-1.085781008E-1,-1.847812906E-2
1.552132135E0,-4.734066129E-2,-1.122431830E-1,-1.969982497E-2
1.554513698E0,-5.344913527E-2,-1.146865711E-1,-1.969982497E-2
1.556895260E0,-5.971032009E-2,-1.171299592E-1,-2.092151903E-2
1.559276823E0,-6.581879407E-2,-1.171299592E-1,-2.336490713E-2
1.561658385E0,-7.207997888E-2,-1.172826737E-1,-2.580829710E-2
1.564039948E0,-7.452336699E-2,-1.136175916E-1,-2.596100792E-2
1.566421510E0,-8.078455180E-2,-1.111742035E-1,-2.718270384E-2
1.568803073E0,-8.582404256E-2,-1.076618284E-1,-2.718270384E-2
1.571184635E0,-8.948912472E-2,-1.027750522E-1,-2.718270384E-2
1.573566198E0,-8.948912472E-2,-9.910997003E-2,-2.718270384E-2
1.575947760E0,-9.086353332E-2,-9.544488788E-2,-2.718270384E-2
1.578329323E0,-9.086353332E-2,-9.422318637E-2,-2.596100792E-2
1.580710885E0,-9.208522737E-2,-9.193251282E-2,-2.596100792E-2
1.583092448E0,-9.208522737E-2,-9.193251282E-2,-2.473931387E-2
1.585474010E0,-9.208522737E-2,-9.300149232E-2,-2.596100792E-2
1.587855573E0,-9.071081877E-2,-9.788827598E-2,-2.718270384E-2
1.590237135E0,-9.208522737E-2,-9.910997003E-2,-2.718270384E-2
1.592618698E0,-9.315420687E-2,-1.052184403E-1,-2.718270384E-2
1.595000260E0,-9.315420687E-2,-1.076618284E-1,-2.718270384E-2
1.597381823E0,-9.315420687E-2,-1.101052165E-1,-3.084778599E-2
1.599763385E0,-9.575030953E-2,-1.101052165E-1,-3.206948191E-2
1.602144948E0,-9.819369763E-2,-1.149920002E-1,-3.329117596E-2
1.604526510E0,-9.941539168E-2,-1.149920002E-1,-3.573456407E-2
1.606908073E0,-1.018587798E-1,-1.162136942E-1,-3.695625812E-2
1.609289635E0,-1.044548824E-1,-1.186570823E-1,-3.939964995E-2
1.611671198E0,-1.056765765E-1,-1.186570823E-1,-4.306473210E-2
1.614052760E0,-1.056765765E-1,-1.137702987E-1,-4.062134400E-2
1.616434323E0,-1.105633527E-1,-1.139230132E-1,-4.443913698E-2
1.618815885E0,-1.107160673E-1,-1.127013192E-1,-4.566083103E-2
1.621197448E0,-1.131594554E-1,-1.102579311E-1,-4.443913698E-2
1.623579010E0,-1.168245375E-1,-1.090362370E-1,-4.443913698E-2
1.625960573E0,-1.180462316E-1,-1.090362370E-1,-4.443913698E-2
1.628342135E0,-1.218640283E-1,-1.078145429E-1,-4.321744293E-2
1.630723698E0,-1.267508119E-1,-1.114796251E-1,-4.199574888E-2
1.633105260E0,-1.279724985E-1,-1.139230132E-1,-4.321744293E-2
1.635486823E0,-1.291942000E-1,-1.188097894E-1,-4.199574888E-2
1.637868385E0,-1.304158866E-1,-1.249182671E-1,-4.199574888E-2
1.640249948E0,-1.328592747E-1,-1.333174109E-1,-4.077405483E-2
1.642631510E0,-1.328592747E-1,-1.382041872E-1,-4.321744293E-2
1.645013125E0,-1.353026628E-1,-1.430909634E-1,-4.321744293E-2
1.647394687E0,-1.365243644E-1,-1.504211426E-1,-4.443913698E-2
1.649776198E0,-1.377460510E-1,-1.540862173E-1,-4.566083103E-2
1.652157760E0,-1.389677525E-1,-1.565296054E-1,-4.550812021E-2
1.654539375E0,-1.377460510E-1,-1.565296054E-1,-4.672981426E-2
1.656920937E0,-1.389677525E-1,-1.553079188E-1,-4.932591692E-2
1.659302500E0,-1.365243644E-1,-1.565296054E-1,-4.932591692E-2
1.661684062E0,-1.377460510E-1,-1.553079188E-1,-4.810422286E-2
1.664065625E0,-1.377460510E-1,-1.553079188E-1,-4.932591692E-2
1.666447187E0,-1.365243644E-1,-1.577513069E-1,-5.054761097E-2
1.668828750E0,-1.377460510E-1,-1.565296054E-1,-4.550812021E-2
1.671210312E0,-1.377460510E-1,-1.553079188E-1,-4.184303805E-2
1.673591875E0,-1.363716573E-1,-1.575985998E-1,-3.939964995E-2
1.675973437E0,-1.351499557E-1,-1.612636745E-1,-3.573456407E-2
1.678355000E0,-1.351499557E-1,-1.600419879E-1,-3.695625812E-2
1.680736562E0,-1.327065676E-1,-1.575985998E-1,-3.573456407E-2
1.683118125E0,-1.314848661E-1,-1.563768983E-1,-3.573456407E-2
1.685499687E0,-1.290414780E-1,-1.539335102E-1,-3.573456407E-2
1.687881250E0,-1.264453828E-1,-1.514901221E-1,-3.695625812E-2
1.690262812E0,-1.227803007E-1,-1.514901221E-1,-3.695625812E-2
1.692644375E0,-1.215586066E-1,-1.502684206E-1,-3.573456407E-2
1.695025937E0,-1.177408099E-1,-1.514901221E-1,-3.451287001E-2
1.697407500E0,-1.203369126E-1,-1.478250325E-1,-3.206948191E-2
1.699789062E0,-1.191152185E-1,-1.490467340E-1,-3.329117596E-2
1.702170625E0,-1.177408099E-1,-1.490467340E-1,-3.084778599E-2
1.704552187E0,-1.191152185E-1,-1.478250325E-1,-2.962609194E-2
1.706933750E0,-1.203369126E-1,-1.466033459E-1,-3.084778599E-2
1.709315312E0,-1.191152185E-1,-1.429382563E-1,-2.962609194E-2
1.711696875E0,-1.191152185E-1,-1.392731816E-1,-3.084778599E-2
1.714078437E0,-1.203369126E-1,-1.333174109E-1,-3.206948191E-2
1.716460000E0,-1.217113137E-1,-1.284306347E-1,-3.329117596E-2
1.718841562E0,-1.217113137E-1,-1.247655526E-1,-3.573456407E-2
1.721223125E0,-1.217113137E-1,-1.224748790E-1,-3.833066672E-2
1.723604687E0,-1.217113137E-1,-1.188097894E-1,-3.833066672E-2
1.725986250E0,-1.229330078E-1,-1.163664013E-1,-3.955236077E-2
1.728367812E0,-1.230857223E-1,-1.127013192E-1,-4.199574888E-2
1.730749375E0,-1.243074164E-1,-1.102579311E-1,-4.077405483E-2
1.733130937E0,-1.243074164E-1,-1.090362370E-1,-4.077405483E-2
1.735512500E0,-1.267508119E-1,-1.102579311E-1,-3.710897267E-2
1.737894062E0,-1.291942000E-1,-1.102579311E-1,-3.833066672E-2
1.740275625E0,-1.330119967E-1,-1.067455560E-1,-3.833066672E-2
1.742657187E0,-1.366770715E-1,-1.043021679E-1,-3.588727489E-2
1.745038802E0,-1.391204596E-1,-9.941539168E-2,-3.466558084E-2
1.747420365E0,-1.404948682E-1,-9.330692142E-2,-3.344388679E-2
1.749801927E0,-1.417165697E-1,-8.979454637E-2,-3.344388679E-2
1.752183490E0,-1.429382563E-1,-8.246438205E-2,-3.359659761E-2
1.754565000E0,-1.443126649E-1,-7.391251624E-2,-3.237490356E-2
1.756946615E0,-1.455343664E-1,-6.673506647E-2,-3.237490356E-2
1.759328177E0,-1.467560530E-1,-6.184828654E-2,-3.237490356E-2
1.761709740E0,-1.455343664E-1,-5.451811850E-2,-3.115320951E-2
1.764091302E0,-1.455343664E-1,-5.207473040E-2,-3.237490356E-2
1.766472865E0,-1.456870735E-1,-4.489727318E-2,-3.115320951E-2
1.768854427E0,-1.444653720E-1,-3.512371704E-2,-3.115320951E-2
1.771235990E0,-1.432436854E-1,-2.672456764E-2,-2.993151546E-2
1.773617552E0,-1.420219839E-1,-1.695101149E-2,-3.130592033E-2
1.775999115E0,-1.433963925E-1,-1.328592747E-2,-3.130592033E-2
1.778380677E0,-1.408002973E-1,-8.399149403E-3,-3.008422814E-2
1.780762240E0,-1.371352077E-1,-1.221694518E-3,-3.130592033E-2
1.783143802E0,-1.385096163E-1,3.665083554E-3,-3.252761811E-2
1.785525365E0,-1.360662282E-1,7.330167107E-3,-3.252761811E-2
1.787906927E0,-1.372879148E-1,1.343864016E-2,-3.374931216E-2
1.790288490E0,-1.348445266E-1,1.466033421E-2,-3.374931216E-2
1.792670052E0,-1.336228400E-1,1.939439960E-2,-3.497100621E-2
1.795051615E0,-1.311794519E-1,2.061609551E-2,-3.741439432E-2
1.797433177E0,-1.287360638E-1,1.954711229E-2,-3.863608837E-2
1.799814740E0,-1.285833418E-1,1.954711229E-2,-3.741439432E-2
1.802196302E0,-1.285833418E-1,1.954711229E-2,-3.741439432E-2
1.804577865E0,-1.249182671E-1,1.832541823E-2,-3.741439432E-2
1.806959427E0,-1.236965731E-1,1.832541823E-2,-3.741439432E-2
1.809340990E0,-1.236965731E-1,1.710372418E-2,-3.497100621E-2
1.811722552E0,-1.212531775E-1,1.343864016E-2,-3.741439432E-2
1.814104115E0,-1.186570823E-1,1.221694518E-2,-3.863608837E-2
1.816485677E0,-1.162136942E-1,1.221694518E-2,-3.863608837E-2
1.818867240E0,-1.162136942E-1,1.588202827E-2,-3.741439432E-2
1.821248802E0,-1.149920002E-1,1.343864016E-2,-3.741439432E-2
1.823630365E0,-1.125486046E-1,1.343864016E-2,-3.619270027E-2
1.826011927E0,-1.125486046E-1,1.466033421E-2,-3.497100621E-2
1.828393490E0,-1.113269106E-1,1.710372418E-2,-3.619270027E-2
1.830775104E0,-1.087308154E-1,1.954711229E-2,-3.497100621E-2
1.833156615E0,-1.088835225E-1,2.443389036E-2,-3.374931216E-2
1.835538229E0,-1.076618284E-1,2.932066843E-2,-3.497100621E-2
1.837919792E0,-1.064401343E-1,3.420744836E-2,-3.130592033E-2
1.840301354E0,-1.052184403E-1,3.787253052E-2,-3.130592033E-2
1.842682917E0,-1.052184403E-1,4.031591862E-2,-3.130592033E-2
1.845064479E0,-1.052184403E-1,4.153761268E-2,-3.008422814E-2
1.847446042E0,-1.064401343E-1,4.382828996E-2,-2.886253223E-2
1.849827604E0,-1.076618284E-1,4.504998401E-2,-2.764083818E-2
1.852209167E0,-1.064401343E-1,4.749337584E-2,-2.764083818E-2
1.854590729E0,-1.039967462E-1,4.993676394E-2,-3.008422814E-2
1.856972292E0,-1.039967462E-1,4.993676394E-2,-3.130592033E-2
1.859353854E0,-1.027750522E-1,5.238015205E-2,-3.008422814E-2
1.861735417E0,-1.003316641E-1,5.238015205E-2,-3.130592033E-2
1.864116979E0,-1.015533581E-1,5.238015205E-2,-3.008422814E-2
1.866498542E0,-9.773556143E-2,5.360184610E-2,-3.008422814E-2
1.868880104E0,-9.773556143E-2,5.482354015E-2,-2.886253223E-2
1.871261667E0,-9.651386738E-2,5.604523420E-2,-2.764083818E-2
1.873643229E0,-9.284878522E-2,5.726693198E-2,-2.519745007E-2
1.876024792E0,-9.162709117E-2,5.971032009E-2,-2.519745007E-2
1.878406354E0,-8.918370306E-2,6.093201414E-2,-2.275406010E-2
1.880787917E0,-8.903098851E-2,5.864133686E-2,-2.153236605E-2
1.883169479E0,-8.658760041E-2,6.230641901E-2,-2.031067200E-2
1.885551042E0,-8.536590636E-2,6.337540597E-2,-2.153236605E-2
1.887932604E0,-8.292251825E-2,6.597150117E-2,-2.031067200E-2
1.890314167E0,-8.047912270E-2,6.597150117E-2,-1.664558798E-2
1.892695729E0,-8.170082420E-2,6.719319522E-2,-1.664558798E-2
1.895077292E0,-8.170082420E-2,6.474980712E-2,-1.542389300E-2
1.897458854E0,-8.047912270E-2,6.597150117E-2,-1.282779220E-2
1.899840417E0,-8.292251825E-2,6.352811307E-2,-1.282779220E-2
1.902221979E0,-8.414421231E-2,6.474980712E-2,-1.298050396E-2
1.904603542E0,-8.414421231E-2,6.108472496E-2,-1.038440317E-2
1.906985104E0,-8.414421231E-2,6.352811307E-2,-1.038440317E-2
1.909366719E0,-8.414421231E-2,6.108472496E-2,-1.038440317E-2
1.911748281E0,-8.414421231E-2,5.986303091E-2,-9.162709117E-3
1.914129844E0,-8.658760041E-2,5.986303091E-2,-7.941014133E-3
1.916511406E0,-8.399149776E-2,5.986303091E-2,-7.941014133E-3
1.918892969E0,-8.399149776E-2,5.864133686E-2,-7.941014133E-3
1.921274531E0,-8.399149776E-2,5.741964281E-2,-6.719320081E-3
1.923656094E0,-8.399149776E-2,5.864133686E-2,-6.719320081E-3
1.926037656E0,-8.276980370E-2,5.619794875E-2,-7.941014133E-3
1.928419219E0,-8.154810965E-2,5.864133686E-2,-6.719320081E-3
1.930800781E0,-8.276980370E-2,5.864133686E-2,-6.719320081E-3
1.933182344E0,-8.154810965E-2,5.864133686E-2,-7.941014133E-3
1.935563906E0,-8.032641560E-2,5.741964281E-2,-5.497625098E-3
1.937945469E0,-7.788302749E-2,6.108472496E-2,-4.275931045E-3
1.940327031E0,-7.666133344E-2,6.123743951E-2,-3.054236295E-3
1.942708594E0,-7.406523079E-2,6.001574174E-2,-4.275931045E-3
1.945090156E0,-7.162184268E-2,6.245913357E-2,-5.497625098E-3
1.947471719E0,-7.162184268E-2,6.001574174E-2,-5.497625098E-3
1.949853281E0,-7.040014863E-2,5.757235363E-2,-3.054236295E-3
1.952234844E0,-6.795676053E-2,5.635065958E-2,-3.054236295E-3
1.954616406E0,-6.795676053E-2,5.879404768E-2,-1.832541777E-3
1.956997969E0,-6.658235192E-2,5.635065958E-2,-6.108472589E-4
1.959379531E0,-6.536065787E-2,5.635065958E-2,-6.108472589E-4
1.961761094E0,-6.291726977E-2,5.512896553E-2,-1.832541777E-3
1.964142656E0,-6.291726977E-2,5.268557742E-2,-6.108472589E-4
1.966524219E0,-5.925218388E-2,5.161659420E-2,-6.108472589E-4
1.968905781E0,-6.047387794E-2,4.917320609E-2,6.108472589E-4
1.971287344E0,-5.909947306E-2,4.428642616E-2,3.206948051E-3
1.973668906E0,-5.543438718E-2,4.306473210E-2,4.428642802E-3
1.976050469E0,-5.421269313E-2,4.184303805E-2,1.985253533E-3
1.978432031E0,-5.161659420E-2,4.077405483E-2,1.985253533E-3
1.980813594E0,-5.161659420E-2,3.955236077E-2,3.206948051E-3
1.983195156E0,-5.039490014E-2,3.833066672E-2,3.206948051E-3
1.985576771E0,-4.917320609E-2,3.466558084E-2,3.206948051E-3
1.987958333E0,-4.672981426E-2,3.710897267E-2,3.206948051E-3
1.990339896E0,-4.535540938E-2,3.588727489E-2,5.650337320E-3
1.992721458E0,-4.672981426E-2,3.466558084E-2,4.428642802E-3
1.995103021E0,-4.535540938E-2,3.466558084E-2,5.650337320E-3
1.997484583E0,-4.291202128E-2,3.466558084E-2,4.428642802E-3
1.999866146E0,-4.291202128E-2,3.344388679E-2,4.428642802E-3
2.002247708E0,-4.291202128E-2,3.466558084E-2,5.650337320E-3
2.004629271E0,-4.169032723E-2,3.344388679E-2,4.428642802E-3
2.007010833E0,-4.046862945E-2,3.222219273E-2,6.872031838E-3
2.009392396E0,-3.924693540E-2,3.237490356E-2,6.872031838E-3
2.011773958E0,-3.924693540E-2,2.993151546E-2,5.650337320E-3
2.014155521E0,-3.802524135E-2,2.870982140E-2,5.650337320E-3
2.016537083E0,-3.542914242E-2,2.748812735E-2,8.093725890E-3
2.018918646E0,-3.420744836E-2,2.137965336E-2,5.803049076E-3
2.021300208E0,-3.038965166E-2,2.137965336E-2,7.024743594E-3
2.023681771E0,-2.916795574E-2,1.664558798E-2,8.246437646E-3
2.026063333E0,-2.794626169E-2,1.298050396E-2,8.246437646E-3
2.028444896E0,-2.535016090E-2,9.315420873E-3,1.068982668E-2
2.030826458E0,-2.412846684E-2,6.872031838E-3,1.068982668E-2
2.033208021E0,-2.290677279E-2,3.359660041E-3,1.068982668E-2
2.035589583E0,-2.168507688E-2,9.162708884E-4,1.191152167E-2
2.037971146E0,-2.046338283E-2,-3.970507067E-3,1.068982668E-2
2.040352708E0,-1.664558798E-2,-5.192201585E-3,1.450762246E-2
2.042734271E0,-1.908897609E-2,-8.857285604E-3,1.328592747E-2
2.045115833E0,-1.664558798E-2,-1.130067464E-2,1.084253844E-2
2.047497396E0,-1.420219894E-2,-1.236965694E-2,1.206423342E-2
2.049879010E0,-1.298050396E-2,-1.359135192E-2,9.620844387E-3
2.052260573E0,-1.160609815E-2,-1.236965694E-2,9.620844387E-3
2.054642135E0,-1.038440317E-2,-1.114796288E-2,1.206423342E-2
2.057023646E0,-9.162709117E-3,-1.481304597E-2,1.084253844E-2
2.059405260E0,-9.162709117E-3,-1.481304597E-2,1.450762246E-2
2.061786823E0,-7.941014133E-3,-1.236965694E-2,1.084253844E-2
2.064168385E0,-6.719320081E-3,-9.926267900E-3,1.084253844E-2
2.066549948E0,-5.497625098E-3,-8.704573847E-3,9.620844387E-3
2.068931510E0,-4.275931045E-3,-7.482878864E-3,1.084253844E-2
2.071313073E0,-3.054236295E-3,-8.704573847E-3,1.084253844E-2
2.073694635E0,-3.054236295E-3,-8.704573847E-3,1.206423342E-2
2.076076198E0,-4.581354442E-4,-9.926267900E-3,1.084253844E-2
2.078457760E0,-4.581354442E-4,-9.926267900E-3,1.084253844E-2
2.080839323E0,1.985253533E-3,-9.926267900E-3,9.620844387E-3
2.083220885E0,3.206948051E-3,-1.114796288E-2,1.084253844E-2
2.085602448E0,4.428642802E-3,-9.926267900E-3,1.206423342E-2
2.087984010E0,3.206948051E-3,-1.114796288E-2,8.399149403E-3
2.090365573E0,5.650337320E-3,-1.359135192E-2,7.177455351E-3
2.092747135E0,5.650337320E-3,-1.359135192E-2,5.955760833E-3
2.095128698E0,8.093725890E-3,-1.603474095E-2,7.177455351E-3
2.097510260E0,6.872031838E-3,-1.832541823E-2,7.177455351E-3
2.099891823E0,6.872031838E-3,-1.832541823E-2,7.177455351E-3
2.102273385E0,7.024743594E-3,-2.076880634E-2,7.177455351E-3
2.104654948E0,9.468132630E-3,-2.199050039E-2,8.399149403E-3
2.107036510E0,9.468132630E-3,-2.199050039E-2,8.399149403E-3
2.109418073E0,8.246437646E-3,-2.565558441E-2,8.399149403E-3
2.111799635E0,8.246437646E-3,-2.443389036E-2,1.084253844E-2
2.114181198E0,7.024743594E-3,-2.443389036E-2,1.206423342E-2
2.116562812E0,7.024743594E-3,-2.321219631E-2,1.084253844E-2
2.118944375E0,7.024743594E-3,-2.443389036E-2,1.206423342E-2
2.121325937E0,4.581354558E-3,-2.687728032E-2,1.206423342E-2
2.123707500E0,3.359660041E-3,-2.687728032E-2,1.206423342E-2
2.126089062E0,4.581354558E-3,-2.565558441E-2,1.206423342E-2
2.128470625E0,4.428642802E-3,-2.199050039E-2,1.084253844E-2
2.130852187E0,5.803049076E-3,-1.954711229E-2,1.084253844E-2
2.133233750E0,5.650337320E-3,-1.588202827E-2,1.206423342E-2
2.135615312E0,6.872031838E-3,-1.236965694E-2,1.206423342E-2
2.137996875E0,5.650337320E-3,-9.926267900E-3,1.328592747E-2
2.140378437E0,5.650337320E-3,-8.704573847E-3,1.450762246E-2
2.142760000E0,8.093725890E-3,-7.482878864E-3,1.328592747E-2
2.145141562E0,6.872031838E-3,-6.261184346E-3,1.572931744E-2
2.147523125E0,9.315420873E-3,-3.817795310E-3,1.450762246E-2
2.149904687E0,1.068982668E-2,-7.482878864E-3,1.328592747E-2
2.152286250E0,9.468132630E-3,-9.926267900E-3,1.328592747E-2
2.154667812E0,1.191152167E-2,-9.926267900E-3,1.328592747E-2
2.157049375E0,1.191152167E-2,-1.343864016E-2,1.450762246E-2
2.159430937E0,1.068982668E-2,-1.710372418E-2,1.572931744E-2
2.161812500E0,1.313321572E-2,-2.199050039E-2,1.450762246E-2
2.164194062E0,1.191152167E-2,-2.199050039E-2,1.817270555E-2
2.166575625E0,1.206423342E-2,-2.199050039E-2,2.076880634E-2
2.168957187E0,1.206423342E-2,-2.321219631E-2,2.076880634E-2
2.171338750E0,1.206423342E-2,-2.199050039E-2,2.321219631E-2
2.173720312E0,1.328592747E-2,-1.954711229E-2,2.321219631E-2
2.176101875E0,1.572931744E-2,-1.954711229E-2,2.565558441E-2
2.178483490E0,1.450762246E-2,-1.588202827E-2,2.305948362E-2
2.180865052E0,1.572931744E-2,-1.466033421E-2,2.443389036E-2
2.183246615E0,1.817270555E-2,-1.466033421E-2,2.565558441E-2
2.185628177E0,1.817270555E-2,-1.343864016E-2,2.687728032E-2
2.188009740E0,1.939439960E-2,-1.221694518E-2,2.565558441E-2
2.190391302E0,2.061609551E-2,-9.773556143E-3,2.687728032E-2
2.192772865E0,2.183778957E-2,-7.330167107E-3,2.687728032E-2
2.195154427E0,2.305948362E-2,-4.886778072E-3,2.809897438E-2
2.197535990E0,2.428117767E-2,-3.665083554E-3,2.809897438E-2
2.199917552E0,2.305948362E-2,-2.443389036E-3,2.687728032E-2
2.202299115E0,2.305948362E-2,1.221694518E-3,2.550287358E-2
2.204680677E0,2.550287358E-2,3.665083554E-3,2.672456764E-2
2.207062240E0,2.672456764E-2,6.108472589E-3,2.672456764E-2
2.209443802E0,2.672456764E-2,7.330167107E-3,2.550287358E-2
2.211825365E0,2.794626169E-2,8.551862091E-3,2.672456764E-2
2.214206927E0,2.794626169E-2,9.773556143E-3,2.672456764E-2
2.216588490E0,2.672456764E-2,1.084253844E-2,2.672456764E-2
2.218970052E0,2.916795574E-2,8.551862091E-3,2.672456764E-2
2.221351615E0,3.176405653E-2,9.773556143E-3,2.794626169E-2
2.223733177E0,2.916795574E-2,8.551862091E-3,2.672456764E-2
2.226114740E0,3.176405653E-2,6.108472589E-3,2.809897438E-2
2.228496302E0,3.298575059E-2,2.443389036E-3,2.687728032E-2
2.230877865E0,3.298575059E-2,1.221694518E-3,2.809897438E-2
2.233259427E0,3.542914242E-2,1.221694518E-3,2.809897438E-2
2.235640990E0,3.787253052E-2,2.443389036E-3,2.687728032E-2
2.238022604E0,3.802524135E-2,1.221694518E-3,2.809897438E-2
2.240404167E0,4.046862945E-2,1.221694518E-3,2.932066843E-2
2.242785729E0,4.046862945E-2,2.443389036E-3,3.176405653E-2
2.245167292E0,4.291202128E-2,2.596100792E-3,3.298575059E-2
2.247548854E0,4.169032723E-2,6.108472589E-3,3.298575059E-2
2.249930417E0,4.413371533E-2,7.482878864E-3,3.665083647E-2
2.252311979E0,4.535540938E-2,1.099525020E-2,3.665083647E-2
2.254693542E0,4.779879749E-2,1.343864016E-2,3.909422457E-2
2.257075104E0,4.779879749E-2,1.221694518E-2,3.787253052E-2
2.259456667E0,4.779879749E-2,1.221694518E-2,3.787253052E-2
2.261838229E0,4.917320609E-2,1.466033421E-2,3.909422457E-2
2.264219792E0,5.039490014E-2,1.236965694E-2,3.909422457E-2
2.266601354E0,4.917320609E-2,8.704573847E-3,3.787253052E-2
2.268982917E0,5.039490014E-2,8.704573847E-3,3.909422457E-2
2.271364479E0,5.161659420E-2,6.261184346E-3,3.909422457E-2
2.273746042E0,4.917320609E-2,2.596100792E-3,3.909422457E-2
2.276127604E0,4.917320609E-2,-1.068982761E-3,3.665083647E-2
2.278509167E0,4.917320609E-2,-2.290677279E-3,3.420744836E-2
2.280890729E0,4.672981426E-2,-7.177455351E-3,3.298575059E-2
2.283272292E0,4.795150831E-2,-8.399149403E-3,3.054236248E-2
2.285653854E0,4.672981426E-2,-9.620844387E-3,2.687728032E-2
2.288035417E0,4.550812021E-2,-9.620844387E-3,2.687728032E-2
2.290416979E0,4.413371533E-2,-8.399149403E-3,2.565558441E-2
2.292798542E0,4.169032723E-2,-4.734066315E-3,2.443389036E-2
2.295180156E0,3.924693540E-2,-0.000000000E0,2.565558441E-2
2.297561719E0,3.787253052E-2,1.221694518E-3,2.443389036E-2
2.299943281E0,3.542914242E-2,6.108472589E-3,2.565558441E-2
2.302324844E0,3.542914242E-2,1.099525020E-2,2.305948362E-2
2.304706406E0,3.542914242E-2,1.450762246E-2,2.183778957E-2
2.307087969E0,3.527642787E-2,2.061609551E-2,2.183778957E-2
2.309469531E0,3.405473381E-2,1.939439960E-2,2.183778957E-2
2.311851094E0,3.405473381E-2,2.428117767E-2,2.183778957E-2
2.314232656E0,3.405473381E-2,2.428117767E-2,2.061609551E-2
2.316614219E0,3.527642787E-2,2.305948362E-2,2.061609551E-2
2.318995781E0,3.405473381E-2,2.428117767E-2,2.183778957E-2
2.321377344E0,3.527642787E-2,2.428117767E-2,2.183778957E-2
2.323758906E0,3.527642787E-2,2.061609551E-2,2.061609551E-2
2.326140469E0,3.283303976E-2,1.695101149E-2,2.183778957E-2
2.328522031E0,3.038965166E-2,1.328592747E-2,2.061609551E-2
2.330903594E0,3.038965166E-2,1.084253844E-2,2.428117767E-2
2.333285156E0,3.176405653E-2,1.099525020E-2,2.550287358E-2
2.335666719E0,3.038965166E-2,9.773556143E-3,2.550287358E-2
2.338048281E0,3.176405653E-2,8.551862091E-3,2.550287358E-2
2.340429844E0,2.794626169E-2,7.330167107E-3,2.672456764E-2
2.342811406E0,2.794626169E-2,6.108472589E-3,2.932066843E-2
2.345192969E0,2.932066843E-2,3.665083554E-3,2.932066843E-2
2.347574583E0,2.932066843E-2,3.665083554E-3,2.932066843E-2
2.349956146E0,2.932066843E-2,-0.000000000E0,3.054236248E-2
2.352337708E0,2.932066843E-2,-1.221694518E-3,3.176405653E-2
2.354719271E0,2.809897438E-2,1.221694518E-3,3.298575059E-2
2.357100833E0,2.932066843E-2,-2.443389036E-3,3.420744836E-2
2.359482396E0,2.932066843E-2,-2.290677279E-3,3.787253052E-2
2.361863958E0,2.687728032E-2,-0.000000000E0,3.787253052E-2
2.364245521E0,2.809897438E-2,-0.000000000E0,3.787253052E-2
2.366627083E0,2.809897438E-2,2.443389036E-3,3.909422457E-2
2.369008646E0,3.054236248E-2,4.886778072E-3,3.787253052E-2
2.371390208E0,3.298575059E-2,8.551862091E-3,3.787253052E-2
2.373771771E0,3.420744836E-2,8.551862091E-3,4.031591862E-2
2.376153333E0,3.420744836E-2,1.221694518E-2,3.909422457E-2
2.378534896E0,3.665083647E-2,1.343864016E-2,3.665083647E-2
2.380916458E0,3.787253052E-2,1.343864016E-2,3.665083647E-2
2.383298021E0,4.291202128E-2,1.343864016E-2,3.787253052E-2
2.385679583E0,4.169032723E-2,1.343864016E-2,3.909422457E-2
2.388061146E0,4.413371533E-2,1.466033421E-2,3.909422457E-2
2.390442708E0,4.413371533E-2,1.588202827E-2,3.909422457E-2
2.392824271E0,4.657710344E-2,1.832541823E-2,4.031591862E-2
2.395205833E0,4.535540938E-2,1.832541823E-2,3.909422457E-2
2.397587396E0,4.902049154E-2,1.832541823E-2,4.031591862E-2
2.399968958E0,4.902049154E-2,2.076880634E-2,4.275930673E-2
2.402350573E0,5.039490014E-2,1.954711229E-2,4.275930673E-2
2.404732135E0,5.039490014E-2,2.199050039E-2,4.275930673E-2
2.407113698E0,5.283828825E-2,2.565558441E-2,4.398100078E-2
2.409495260E0,5.283828825E-2,2.687728032E-2,4.398100078E-2
2.411876823E0,5.405998230E-2,2.809897438E-2,4.398100078E-2
2.414258385E0,5.772506446E-2,2.932066843E-2,4.398100078E-2
2.416639948E0,5.650337040E-2,2.687728032E-2,4.275930673E-2
2.419021510E0,5.650337040E-2,2.687728032E-2,4.520269856E-2
2.421403073E0,5.650337040E-2,2.809897438E-2,4.398100078E-2
2.423784635E0,5.528167635E-2,3.054236248E-2,4.398100078E-2
2.426166198E0,5.528167635E-2,2.932066843E-2,4.520269856E-2
2.428547760E0,5.405998230E-2,2.932066843E-2,4.398100078E-2
2.430929323E0,5.405998230E-2,2.687728032E-2,4.275930673E-2
2.433310885E0,5.283828825E-2,2.443389036E-2,4.520269856E-2
2.435692448E0,5.024218559E-2,2.565558441E-2,4.398100078E-2
2.438074010E0,5.161659420E-2,2.443389036E-2,4.642439261E-2
2.440455573E0,5.039490014E-2,2.443389036E-2,4.520269856E-2
2.442837135E0,5.039490014E-2,2.321219631E-2,4.520269856E-2
2.445218698E0,4.779879749E-2,2.443389036E-2,4.642439261E-2
2.447600312E0,4.779879749E-2,2.443389036E-2,4.764608666E-2
2.449981823E0,4.657710344E-2,2.565558441E-2,4.642439261E-2
2.452363437E0,4.779879749E-2,2.565558441E-2,4.642439261E-2
2.454745000E0,4.779879749E-2,2.565558441E-2,4.764608666E-2
2.457126562E0,5.024218559E-2,2.687728032E-2,4.520269856E-2
2.459508125E0,5.039490014E-2,2.565558441E-2,4.764608666E-2
2.461889687E0,5.405998230E-2,2.809897438E-2,4.520269856E-2
2.464271250E0,5.283828825E-2,3.054236248E-2,4.520269856E-2
2.466652812E0,5.405998230E-2,2.932066843E-2,4.520269856E-2
2.469034375E0,5.405998230E-2,2.932066843E-2,4.764608666E-2
2.471415937E0,5.405998230E-2,2.932066843E-2,4.886778072E-2
2.473797500E0,5.405998230E-2,2.932066843E-2,4.642439261E-2
2.476179062E0,5.283828825E-2,2.932066843E-2,4.764608666E-2
2.478560625E0,5.405998230E-2,2.809897438E-2,4.886778072E-2
2.480942187E0,5.405998230E-2,2.580829710E-2,5.131116882E-2
2.483323750E0,5.161659420E-2,2.321219631E-2,4.886778072E-2
2.485705312E0,4.917320609E-2,1.847812906E-2,5.131116882E-2
2.488086875E0,4.917320609E-2,1.725643501E-2,5.131116882E-2
2.490468437E0,4.917320609E-2,1.603474095E-2,5.131116882E-2
2.492850000E0,4.672981426E-2,1.236965694E-2,5.253286287E-2
2.495231562E0,4.550812021E-2,7.482878864E-3,5.131116882E-2
2.497613125E0,4.550812021E-2,6.261184346E-3,5.253286287E-2
2.499994687E0,4.306473210E-2,3.817795310E-3,5.253286287E-2
2.502376250E0,4.184303805E-2,3.817795310E-3,5.131116882E-2
2.504757865E0,4.062134400E-2,1.374406274E-3,5.253286287E-2
2.507139427E0,3.939964995E-2,2.596100792E-3,5.619794875E-2
2.509520990E0,3.924693540E-2,2.596100792E-3,5.131116882E-2
2.511902552E0,3.939964995E-2,3.817795310E-3,5.375456065E-2
2.514284115E0,4.046862945E-2,7.482878864E-3,5.253286287E-2
2.516665677E0,4.169032723E-2,1.114796288E-2,5.131116882E-2
2.519047240E0,4.169032723E-2,1.114796288E-2,5.131116882E-2
2.521428802E0,4.550812021E-2,1.236965694E-2,4.886778072E-2
2.523810365E0,4.917320609E-2,1.725643501E-2,4.886778072E-2
2.526191927E0,4.917320609E-2,2.199050039E-2,5.008947477E-2
2.528573490E0,5.283828825E-2,2.458660305E-2,5.008947477E-2
2.530955052E0,5.283828825E-2,2.687728032E-2,4.764608666E-2
2.533336615E0,5.650337040E-2,2.809897438E-2,4.642439261E-2
2.535718177E0,5.894676223E-2,2.932066843E-2,4.398100078E-2
2.538099740E0,6.139015034E-2,3.420744836E-2,4.275930673E-2
2.540481302E0,6.765133142E-2,3.909422457E-2,4.153761268E-2
2.542862865E0,6.872031838E-2,4.275930673E-2,3.787253052E-2
2.545244479E0,6.872031838E-2,4.871506989E-2,3.542914242E-2
2.547625990E0,7.116370648E-2,5.482354015E-2,3.298575059E-2
2.550007604E0,7.727217674E-2,5.971032009E-2,3.176405653E-2
2.552389167E0,7.849387079E-2,6.704048812E-2,3.176405653E-2
2.554770729E0,7.971556485E-2,7.421794534E-2,2.794626169E-2
2.557152292E0,8.093725890E-2,8.154810965E-2,2.550287358E-2
2.559533854E0,8.093725890E-2,8.399149776E-2,2.183778957E-2
2.561915417E0,8.322793990E-2,8.994726092E-2,1.817270555E-2
2.564296979E0,8.582404256E-2,9.116895497E-2,1.450762246E-2
2.566678542E0,8.567132801E-2,9.483403713E-2,1.450762246E-2
2.569060104E0,8.567132801E-2,9.605573118E-2,1.328592747E-2
2.571441667E0,8.826743066E-2,9.483403713E-2,1.206423342E-2
2.573823229E0,9.071081877E-2,9.116895497E-2,1.206423342E-2
2.576204792E0,9.071081877E-2,8.872556686E-2,1.206423342E-2
2.578586354E0,9.315420687E-2,8.643488586E-2,9.620844387E-3
2.580967917E0,9.819369763E-2,8.276980370E-2,9.620844387E-3
2.583349479E0,1.030804738E-1,7.666133344E-2,8.399149403E-3
2.585731042E0,1.068982705E-1,7.070557028E-2,9.773556143E-3
2.588112604E0,1.107160673E-1,6.337540597E-2,1.343864016E-2
2.590494167E0,1.131594554E-1,5.619794875E-2,1.343864016E-2
2.592875781E0,1.157555580E-1,4.886778072E-2,1.954711229E-2
2.595257344E0,1.207950488E-1,3.802524135E-2,1.969982497E-2
2.597638906E0,1.258345395E-1,2.718270384E-2,1.969982497E-2
2.600020469E0,1.308740228E-1,2.107422985E-2,2.336490713E-2
2.602402031E0,1.345391124E-1,1.145338640E-2,2.336490713E-2
2.604783594E0,1.371352077E-1,5.344913341E-3,2.473931387E-2
2.607165156E0,1.395785958E-1,1.832541777E-3,2.473931387E-2
2.609546719E0,1.446180940E-1,-5.497625098E-3,2.473931387E-2
2.611928281E0,1.470614821E-1,-1.145338640E-2,2.596100792E-2
2.614309844E0,1.470614821E-1,-1.389677543E-2,2.718270384E-2
2.616691406E0,1.484358907E-1,-1.878355257E-2,2.840439789E-2
2.619072969E0,1.496575773E-1,-2.122694254E-2,3.084778599E-2
2.621454531E0,1.484358907E-1,-2.611372061E-2,2.840439789E-2
2.623836094E0,1.484358907E-1,-2.611372061E-2,2.962609194E-2
2.626217656E0,1.459924877E-1,-2.840439789E-2,3.084778599E-2
2.628599219E0,1.459924877E-1,-3.084778599E-2,3.084778599E-2
2.630980781E0,1.423274130E-1,-3.084778599E-2,3.084778599E-2
2.633362344E0,1.435490996E-1,-2.962609194E-2,3.084778599E-2
2.635743906E0,1.411057115E-1,-3.222219273E-2,2.840439789E-2
2.638125469E0,1.397313178E-1,-3.344388679E-2,2.596100792E-2
2.640507031E0,1.372879148E-1,-3.710897267E-2,2.351761982E-2
2.642888646E0,1.372879148E-1,-3.833066672E-2,2.229592577E-2
2.645270208E0,1.348445266E-1,-3.955236077E-2,2.107422985E-2
2.647651771E0,1.311794519E-1,-3.955236077E-2,2.107422985E-2
2.650033333E0,1.298050433E-1,-4.077405483E-2,2.107422985E-2
2.652414896E0,1.261399537E-1,-3.955236077E-2,1.863084175E-2
2.654796458E0,1.211004704E-1,-3.833066672E-2,1.618745178E-2
2.657178021E0,1.174353883E-1,-3.955236077E-2,1.496575773E-2
2.659559583E0,1.149920002E-1,-3.848337755E-2,1.252236869E-2
2.661941146E0,1.087308154E-1,-3.726168349E-2,9.926267900E-3
2.664322708E0,1.049130186E-1,-3.359659761E-2,5.039489828E-3
2.666704271E0,1.000262350E-1,-3.252761811E-2,5.039489828E-3
2.669085833E0,9.620844573E-2,-3.008422814E-2,-1.068982761E-3
2.671467396E0,9.254335612E-2,-2.764083818E-2,-3.512371797E-3
2.673848958E0,9.116895497E-2,-2.290677279E-2,-6.108472589E-3
2.676230521E0,9.116895497E-2,-1.924168877E-2,-7.330167107E-3
2.678612083E0,8.994726092E-2,-1.191152167E-2,-8.551862091E-3
2.680993646E0,9.116895497E-2,-1.084253844E-2,-9.773556143E-3
2.683375208E0,9.361234307E-2,-8.399149403E-3,-1.221694518E-2
2.685756823E0,9.483403713E-2,-2.290677279E-3,-1.343864016E-2
2.688138385E0,9.605573118E-2,1.527118147E-4,-1.466033421E-2
2.690519948E0,9.590301663E-2,6.261184346E-3,-1.466033421E-2
2.692901510E0,9.834641218E-2,7.482878864E-3,-1.710372418E-2
2.695283073E0,1.009425074E-1,8.704573847E-3,-1.832541823E-2
2.697664635E0,1.033858955E-1,8.704573847E-3,-1.954711229E-2
2.700046198E0,1.082726792E-1,1.236965694E-2,-2.199050039E-2
2.702427760E0,1.107160673E-1,1.588202827E-2,-2.199050039E-2
2.704809323E0,1.131594554E-1,1.603474095E-2,-2.199050039E-2
2.707190885E0,1.131594554E-1,1.954711229E-2,-2.565558441E-2
2.709572448E0,1.180462316E-1,2.076880634E-2,-2.809897438E-2
2.711954010E0,1.218640283E-1,2.321219631E-2,-2.565558441E-2
2.714335573E0,1.255291104E-1,2.565558441E-2,-2.687728032E-2
2.716717135E0,1.243074164E-1,2.321219631E-2,-3.054236248E-2
2.719098698E0,1.279724985E-1,2.321219631E-2,-3.054236248E-2
2.721480260E0,1.304158866E-1,2.443389036E-2,-2.932066843E-2
2.723861823E0,1.330119967E-1,2.092151903E-2,-2.932066843E-2
2.726243437E0,1.342336833E-1,1.603474095E-2,-2.687728032E-2
2.728625000E0,1.342336833E-1,1.236965694E-2,-2.565558441E-2
2.731006562E0,1.368297935E-1,6.413896102E-3,-2.428117767E-2
2.733388125E0,1.380514801E-1,1.527118147E-3,-2.183778957E-2
2.735769687E0,1.382041872E-1,-6.872031838E-3,-1.939439960E-2
2.738151250E0,1.394258887E-1,-1.542389300E-2,-1.572931744E-2
2.740532812E0,1.408002973E-1,-2.382304333E-2,-1.206423342E-2
2.742914375E0,1.395785958E-1,-3.115320951E-2,-9.468132630E-3
2.745295937E0,1.383569092E-1,-3.848337755E-2,-7.024743594E-3
2.747677500E0,1.397313178E-1,-4.321744293E-2,-3.359660041E-3
2.750059062E0,1.409530044E-1,-5.054761097E-2,3.054236295E-4
2.752440625E0,1.423274130E-1,-5.772506446E-2,6.413896102E-3
2.754822187E0,1.435490996E-1,-6.139015034E-2,8.857285604E-3
2.757203750E0,1.435490996E-1,-6.612421572E-2,1.389677543E-2
2.759585312E0,1.449235082E-1,-6.612421572E-2,1.634016447E-2
2.761966875E0,1.461452097E-1,-6.978929788E-2,1.878355257E-2
2.764348437E0,1.461452097E-1,-7.101099193E-2,2.244863659E-2
2.766730000E0,1.485885978E-1,-6.978929788E-2,2.244863659E-2
2.769111615E0,1.524063945E-1,-6.978929788E-2,2.244863659E-2
2.771493177E0,1.524063945E-1,-6.856760383E-2,2.489202656E-2
2.773874740E0,1.560714692E-1,-7.085828483E-2,2.244863659E-2
2.776256302E0,1.572931707E-1,-6.719319522E-2,2.367033064E-2
2.778637865E0,1.572931707E-1,-6.490252167E-2,2.367033064E-2
2.781019427E0,1.585148573E-1,-6.245913357E-2,2.244863659E-2
2.783400990E0,1.585148573E-1,-6.001574174E-2,2.122694254E-2
2.785782552E0,1.585148573E-1,-5.635065958E-2,2.000524849E-2
2.788164115E0,1.597365588E-1,-5.635065958E-2,1.878355257E-2
2.790545677E0,1.585148573E-1,-5.512896553E-2,1.634016447E-2
2.792927240E0,1.571404636E-1,-5.268557742E-2,1.389677543E-2
2.795308802E0,1.583621502E-1,-5.635065958E-2,1.145338640E-2
2.797690365E0,1.546970755E-1,-5.772506446E-2,7.788302377E-3
2.800071927E0,1.522536725E-1,-5.772506446E-2,2.748812549E-3
2.802453490E0,1.496575773E-1,-5.772506446E-2,2.748812549E-3
2.804835052E0,1.459924877E-1,-6.016845629E-2,1.527118147E-3
2.807216615E0,1.411057115E-1,-6.383354217E-2,-9.162708884E-4
2.809598177E0,1.348445266E-1,-6.749862432E-2,-2.137965523E-3
2.811979740E0,1.285833418E-1,-6.872031838E-2,-3.359660041E-3
2.814361354E0,1.212531775E-1,-7.131642103E-2,-7.024743594E-3
2.816742917E0,1.137702987E-1,-7.375980914E-2,-1.068982668E-2
2.819124479E0,1.050657257E-1,-7.986827940E-2,-1.068982668E-2
2.821506042E0,9.895725548E-2,-8.353336155E-2,-1.068982668E-2
2.823887604E0,9.147437662E-2,-8.597674966E-2,-1.084253844E-2
2.826269167E0,8.154810965E-2,-9.330692142E-2,-1.450762246E-2
2.828650729E0,7.299624383E-2,-9.941539168E-2,-1.572931744E-2
2.831032292E0,6.429167092E-2,-1.018587798E-1,-1.450762246E-2
2.833413854E0,5.680879578E-2,-1.079672500E-1,-1.450762246E-2
2.835795417E0,4.825693369E-2,-1.165191159E-1,-1.817270555E-2
2.838176979E0,3.710897267E-2,-1.203369126E-1,-1.939439960E-2
2.840558542E0,2.962609194E-2,-1.227803007E-1,-1.939439960E-2
2.842940104E0,1.969982497E-2,-1.276670843E-1,-2.305948362E-2
2.845321667E0,1.114796288E-2,-1.313321590E-1,-2.443389036E-2
2.847703229E0,2.443389036E-3,-1.325538605E-1,-2.687728032E-2
2.850084844E0,-3.817795310E-3,-1.351499557E-1,-2.932066843E-2
2.852466406E0,-1.130067464E-2,-1.375933439E-1,-3.054236248E-2
2.854847969E0,-1.740914769E-2,-1.375933439E-1,-3.420744836E-2
2.857229531E0,-2.244863659E-2,-1.375933439E-1,-3.542914242E-2
2.859611094E0,-2.733541466E-2,-1.400367320E-1,-3.665083647E-2
2.861992656E0,-3.237490356E-2,-1.401894391E-1,-3.924693540E-2
2.864374219E0,-3.481829539E-2,-1.353026628E-1,-4.046862945E-2
2.866755781E0,-3.741439432E-2,-1.316375881E-1,-4.657710344E-2
2.869137344E0,-3.863608837E-2,-1.269035190E-1,-4.657710344E-2
2.871518906E0,-4.123219103E-2,-1.220167428E-1,-4.902049154E-2
2.873900469E0,-4.367557913E-2,-1.148392856E-1,-5.283828825E-2
2.876282031E0,-4.627167806E-2,-1.087308154E-1,-5.528167635E-2
2.878663594E0,-5.253286287E-2,-1.027750522E-1,-5.894676223E-2
2.881045156E0,-5.375456065E-2,-9.422318637E-2,-6.505523622E-2
2.883426719E0,-5.757235363E-2,-8.582404256E-2,-7.009471953E-2
2.885808281E0,-6.261184067E-2,-8.108997345E-2,-7.375980914E-2
2.888189844E0,-6.887302548E-2,-7.620319724E-2,-8.108997345E-2
2.890571406E0,-7.635590434E-2,-7.269082218E-2,-8.612946421E-2
2.892952969E0,-8.261708915E-2,-7.269082218E-2,-9.345962852E-2
2.895334583E0,-9.009996802E-2,-7.162184268E-2,-1.032331884E-1
2.897716146E0,-9.880454093E-2,-6.933116168E-2,-1.119377613E-1
2.900097708E0,-1.075091213E-1,-7.299624383E-2,-1.204896197E-1
2.902479271E0,-1.163664013E-1,-7.437065244E-2,-1.314848661E-1
2.904860833E0,-1.250709742E-1,-7.681404054E-2,-1.414111406E-1
2.907242396E0,-1.325538605E-1,-8.063183725E-2,-1.524063945E-1
2.909623958E0,-1.424801201E-1,-8.307522535E-2,-1.585148573E-1
2.912005521E0,-1.499630064E-1,-8.674030751E-2,-1.634016484E-1
2.914387083E0,-1.572931707E-1,-8.933641016E-2,-1.696628332E-1
2.916768646E0,-1.647760421E-1,-9.300149232E-2,-1.745496094E-1
2.919150208E0,-1.722589284E-1,-9.544488788E-2,-1.769929975E-1
2.921531771E0,-1.795890927E-1,-1.015533581E-1,-1.782146841E-1
2.923913333E0,-1.858502775E-1,-1.052184403E-1,-1.769929975E-1
2.926294896E0,-1.919587553E-1,-1.088835225E-1,-1.769929975E-1
2.928676510E0,-1.969982386E-1,-1.162136942E-1,-1.757712960E-1
2.931058073E0,-2.006633282E-1,-1.247655526E-1,-1.757712960E-1
2.933439635E0,-2.055501044E-1,-1.331647038E-1,-1.721062213E-1
2.935821198E0,-2.090624720E-1,-1.429382563E-1,-1.672194302E-1
2.938202760E0,-2.115058601E-1,-1.537808031E-1,-1.634016484E-1
2.940584323E0,-2.127275616E-1,-1.647760421E-1,-1.585148573E-1
2.942965885E0,-2.150182426E-1,-1.768402755E-1,-1.499630064E-1
2.945347448E0,-2.150182426E-1,-1.876828223E-1,-1.449235082E-1
2.947729010E0,-2.173089087E-1,-2.046338320E-1,-1.388150454E-1
2.950110573E0,-2.209739983E-1,-2.192941606E-1,-1.339282542E-1
2.952492135E0,-2.244863659E-1,-2.386885732E-1,-1.276670843E-1
2.954873698E0,-2.281514555E-1,-2.544178963E-1,-1.252236813E-1
2.957255260E0,-2.305948436E-1,-2.629697323E-1,-1.240019947E-1
2.959636823E0,-2.354816198E-1,-2.701472044E-1,-1.191152185E-1
2.962018385E0,-2.415900975E-1,-2.774773538E-1,-1.142284349E-1
2.964399948E0,-2.452551723E-1,-2.786990702E-1,-1.130067408E-1
2.966781510E0,-2.515163720E-1,-2.774773538E-1,-1.081199646E-1
2.969163125E0,-2.539597452E-1,-2.774773538E-1,-1.056765765E-1
2.971544687E0,-2.576248348E-1,-2.750339806E-1,-1.020114943E-1
2.973926250E0,-2.625116110E-1,-2.738122940E-1,-9.590301663E-2
2.976307812E0,-2.651077211E-1,-2.738122940E-1,-9.101624042E-2
2.978689375E0,-2.699944973E-1,-2.750339806E-1,-8.490777016E-2
2.981070937E0,-2.699944973E-1,-2.738122940E-1,-8.002099395E-2
2.983452500E0,-2.724378705E-1,-2.701472044E-1,-7.146912813E-2
2.985834062E0,-2.748812735E-1,-2.689255178E-1,-6.658235192E-2
2.988215625E0,-2.773246467E-1,-2.677038014E-1,-6.047387794E-2
2.990597187E0,-2.785463631E-1,-2.689255178E-1,-5.925218388E-2
2.992978750E0,-2.797680497E-1,-2.664821148E-1,-5.680879578E-2
2.995360312E0,-2.834331393E-1,-2.677038014E-1,-5.436540768E-2
2.997741875E0,-2.858765125E-1,-2.677038014E-1,-5.558710173E-2
3.000123437E0,-2.872509360E-1,-2.664821148E-1,-5.680879578E-2
3.002505000E0,-2.921377122E-1,-2.664821148E-1,-5.558710173E-2
3.004886615E0,-2.909159958E-1,-2.677038014E-1,-5.436540768E-2
3.007268177E0,-2.933593988E-1,-2.664821148E-1,-5.558710173E-2
3.009649740E0,-2.970244884E-1,-2.677038014E-1,-5.436540768E-2
3.012031302E0,-2.983988822E-1,-2.640387416E-1,-5.314370990E-2
3.014412865E0,-3.020639718E-1,-2.629697323E-1,-5.436540768E-2
3.016794427E0,-3.045073450E-1,-2.580829561E-1,-5.314370990E-2
3.019175990E0,-3.071034551E-1,-2.556395829E-1,-5.192201585E-2
3.021557552E0,-3.071034551E-1,-2.519744933E-1,-5.070032179E-2
3.023939115E0,-3.046600819E-1,-2.483094037E-1,-4.825693369E-2
3.026320677E0,-3.032856584E-1,-2.458660156E-1,-4.459185153E-2
3.028702240E0,-2.983988822E-1,-2.397575527E-1,-4.092676565E-2
3.031083802E0,-2.947337925E-1,-2.348707765E-1,-3.603998944E-2
3.033465365E0,-2.860292196E-1,-2.312056869E-1,-3.237490356E-2
3.035846927E0,-2.809897363E-1,-2.287622988E-1,-2.870982140E-2
3.038228490E0,-2.722851634E-1,-2.237228155E-1,-2.367033064E-2
3.040610052E0,-2.623589039E-1,-2.176143378E-1,-1.634016447E-2
3.042991667E0,-2.538070381E-1,-2.102841735E-1,-1.145338640E-2
3.045373229E0,-2.376195788E-1,-2.029540092E-1,-6.566607859E-3
3.047754792E0,-2.228065431E-1,-1.979145110E-1,-2.901524538E-3
3.050136354E0,-2.092151791E-1,-1.905843467E-1,-1.527118147E-3
3.052517917E0,-1.930277348E-1,-1.844758689E-1,9.162708884E-4
3.054899479E0,-1.769929975E-1,-1.769929975E-1,2.137965523E-3
3.057281042E0,-1.621799469E-1,-1.721062213E-1,2.137965523E-3
3.059662604E0,-1.435490996E-1,-1.635543555E-1,3.512371797E-3
3.062044167E0,-1.250709742E-1,-1.562241912E-1,3.512371797E-3
3.064425729E0,-1.088835225E-1,-1.511846930E-1,2.290677279E-3
3.066807292E0,-9.284878522E-2,-1.426328421E-1,1.068982761E-3
3.069188854E0,-7.681404054E-2,-1.340809762E-1,-1.527118147E-4
3.071570417E0,-5.940489471E-2,-1.279724985E-1,1.221694518E-3
3.073951979E0,-4.581354558E-2,-1.243074164E-1,-0.000000000E0
3.076333542E0,-3.100049868E-2,-1.168245375E-1,-2.443389036E-3
3.078715104E0,-1.740914769E-2,-1.094943732E-1,-3.665083554E-3
3.081096667E0,-6.261184346E-3,-1.046075895E-1,-4.886778072E-3
3.083478281E0,7.330167107E-3,-1.021642014E-1,-6.108472589E-3
3.085859844E0,2.092151903E-2,-1.009425074E-1,-8.551862091E-3
3.088241406E0,3.084778599E-2,-9.956810623E-2,-1.084253844E-2
3.090622969E0,3.695625812E-2,-9.956810623E-2,-1.206423342E-2
3.093004531E0,4.199574888E-2,-9.712471068E-2,-1.084253844E-2
3.095386094E0,4.810422286E-2,-9.712471068E-2,-1.328592747E-2
3.097767656E0,5.070032179E-2,-9.834641218E-2,-1.450762246E-2
3.100149219E0,5.314370990E-2,-9.712471068E-2,-1.572931744E-2
3.102530781E0,5.176930502E-2,-9.468132257E-2,-2.061609551E-2
3.104912344E0,4.810422286E-2,-9.590301663E-2,-2.428117767E-2
3.107293906E0,4.550812021E-2,-9.605573118E-2,-2.932066843E-2
3.109675469E0,4.184303805E-2,-9.605573118E-2,-3.420744836E-2
3.112057031E0,3.680354729E-2,-9.727742523E-2,-4.031591862E-2
3.114438594E0,3.191677108E-2,-9.865183383E-2,-4.764608666E-2
3.116820208E0,2.443389036E-2,-1.023169160E-1,-5.757235363E-2
3.119201771E0,1.817270555E-2,-1.024696305E-1,-6.368082762E-2
3.121583333E0,1.191152167E-2,-1.024696305E-1,-7.101099193E-2
3.123964896E0,8.093725890E-3,-1.012479365E-1,-7.834116369E-2
3.126346458E0,-6.108472589E-4,-1.026223376E-1,-8.704573661E-2
3.128728021E0,-8.093725890E-3,-1.003316641E-1,-9.193251282E-2
3.131109583E0,-1.435491070E-2,-1.039967462E-1,-9.926267713E-2
3.133491146E0,-2.046338283E-2,-1.052184403E-1,-1.053711548E-1
3.135872708E0,-2.428117767E-2,-1.053711548E-1,-1.116323397E-1
3.138254271E0,-3.054236248E-2,-1.029277667E-1,-1.152974218E-1
3.140635833E0,-3.420744836E-2,-9.926267713E-2,-1.189625040E-1
3.143017396E0,-3.802524135E-2,-9.452861547E-2,-1.262926757E-1
3.145398958E0,-3.817795217E-2,-9.086353332E-2,-1.336228400E-1
3.147780573E0,-3.573456407E-2,-8.612946421E-2,-1.362189353E-1
3.150162083E0,-3.451287001E-2,-8.124268800E-2,-1.423274130E-1
3.152543698E0,-3.573456407E-2,-7.757759839E-2,-1.447708011E-1
3.154925260E0,-3.451287001E-2,-6.917845458E-2,-1.447708011E-1
3.157306823E0,-3.206948191E-2,-6.429167092E-2,-1.411057115E-1
3.159688385E0,-3.344388679E-2,-5.818320066E-2,-1.423274130E-1
3.162069948E0,-3.344388679E-2,-5.696150661E-2,-1.423274130E-1
3.164451510E0,-3.344388679E-2,-5.329642445E-2,-1.398840249E-1
3.166833073E0,-3.588727489E-2,-5.207473040E-2,-1.374406368E-1
3.169214635E0,-4.199574888E-2,-4.978405312E-2,-1.349972486E-1
3.171596198E0,-4.321744293E-2,-5.085303262E-2,-1.325538605E-1
3.173977760E0,-4.825693369E-2,-5.085303262E-2,-1.276670843E-1
3.176359323E0,-5.192201585E-2,-4.978405312E-2,-1.252236813E-1
3.178740885E0,-5.436540768E-2,-4.978405312E-2,-1.227803007E-1
3.181122448E0,-5.558710173E-2,-4.978405312E-2,-1.203369126E-1
3.183504010E0,-5.925218388E-2,-5.085303262E-2,-1.142284349E-1
3.185885625E0,-6.047387794E-2,-4.963133857E-2,-1.117850468E-1
3.188267135E0,-6.429167092E-2,-4.734066129E-2,-1.081199646E-1
3.190648750E0,-6.551336497E-2,-4.840964451E-2,-1.068982705E-1
3.193030312E0,-7.040014863E-2,-5.085303262E-2,-1.007898003E-1
3.195411875E0,-7.284353673E-2,-5.329642445E-2,-9.712471068E-2
3.197793437E0,-7.406523079E-2,-5.573981255E-2,-9.345962852E-2
3.200175000E0,-7.773031294E-2,-5.696150661E-2,-8.857285231E-2
3.202556562E0,-7.895200700E-2,-5.940489471E-2,-8.612946421E-2
3.204938125E0,-8.139539510E-2,-6.413896382E-2,-8.124268800E-2
3.207319687E0,-8.261708915E-2,-6.780404598E-2,-7.879929990E-2
3.209701250E0,-8.246438205E-2,-7.024743408E-2,-7.498150319E-2
3.212082812E0,-8.368607610E-2,-7.635590434E-2,-7.375980914E-2
3.214464375E0,-8.368607610E-2,-7.864658535E-2,-7.131642103E-2
3.216845937E0,-8.246438205E-2,-8.475505561E-2,-7.498150319E-2
3.219227552E0,-8.124268800E-2,-9.086353332E-2,-7.620319724E-2
3.221609115E0,-8.124268800E-2,-9.452861547E-2,-8.108997345E-2
3.223990677E0,-7.986827940E-2,-1.018587798E-1,-8.353336155E-2
3.226372240E0,-7.986827940E-2,-1.065928489E-1,-8.475505561E-2
3.228753802E0,-7.742489129E-2,-1.114796251E-1,-8.719844371E-2
3.231135365E0,-7.742489129E-2,-1.188097894E-1,-9.086353332E-2
3.233516927E0,-7.864658535E-2,-1.236965731E-1,-9.452861547E-2
3.235898490E0,-7.986827940E-2,-1.322484314E-1,-9.575030953E-2
3.238280052E0,-8.231166750E-2,-1.334701329E-1,-9.819369763E-2
3.240661615E0,-8.353336155E-2,-1.383569092E-1,-1.006370857E-1
3.243043177E0,-8.719844371E-2,-1.444653720E-1,-1.030804738E-1
3.245424740E0,-8.964183182E-2,-1.491994411E-1,-1.030804738E-1
3.247806302E0,-9.223793447E-2,-1.540862173E-1,-1.055238619E-1
3.250187865E0,-9.712471068E-2,-1.577513069E-1,-1.043021679E-1
3.252569427E0,-9.956810623E-2,-1.614163816E-1,-1.030804738E-1
3.254951042E0,-1.032331884E-1,-1.650814712E-1,-9.941539168E-2
3.257332604E0,-1.068982705E-1,-1.663031727E-1,-9.819369763E-2
3.259714167E0,-1.081199646E-1,-1.675248593E-1,-9.697200358E-2
3.262095729E0,-1.119377613E-1,-1.687465608E-1,-9.330692142E-2
3.264477292E0,-1.131594554E-1,-1.650814712E-1,-8.964183182E-2
3.266858854E0,-1.180462316E-1,-1.638597846E-1,-8.842013776E-2
3.269240417E0,-1.180462316E-1,-1.626380831E-1,-8.353336155E-2
3.271621979E0,-1.192679256E-1,-1.601946950E-1,-7.986827940E-2
3.274003542E0,-1.204896197E-1,-1.565296054E-1,-7.620319724E-2
3.276385104E0,-1.204896197E-1,-1.491994411E-1,-7.253811508E-2
3.278766667E0,-1.217113137E-1,-1.420219839E-1,-6.765133142E-2
3.281148229E0,-1.204896197E-1,-1.359135211E-1,-6.276455522E-2
3.283529792E0,-1.204896197E-1,-1.310267299E-1,-6.032116711E-2
3.285911354E0,-1.192679256E-1,-1.236965731E-1,-5.787777901E-2
3.288292969E0,-1.180462316E-1,-1.188097894E-1,-5.543438718E-2
3.290674531E0,-1.131594554E-1,-1.151447073E-1,-5.299099907E-2
3.293056094E0,-1.119377613E-1,-1.127013192E-1,-5.054761097E-2
3.295437656E0,-1.119377613E-1,-1.090362370E-1,-4.932591692E-2
3.297819219E0,-1.119377613E-1,-1.053711548E-1,-4.566083103E-2
3.300200781E0,-1.082726792E-1,-1.041494608E-1,-4.688252881E-2
3.302582344E0,-1.044548824E-1,-1.065928489E-1,-4.321744293E-2
3.304963906E0,-1.032331884E-1,-1.065928489E-1,-3.955236077E-2
3.307345469E0,-9.941539168E-2,-1.088835225E-1,-3.939964995E-2
3.309727031E0,-9.575030953E-2,-1.113269106E-1,-3.573456407E-2
3.312108594E0,-9.315420687E-2,-1.149920002E-1,-3.573456407E-2
3.314490156E0,-8.826743066E-2,-1.162136942E-1,-3.451287001E-2
3.316871719E0,-8.200624585E-2,-1.148392856E-1,-3.329117596E-2
3.319253281E0,-7.467607409E-2,-1.136175916E-1,-3.084778599E-2
3.321634844E0,-6.963659078E-2,-1.136175916E-1,-2.962609194E-2
3.324016458E0,-6.093201414E-2,-1.099525094E-1,-2.702999115E-2
3.326398021E0,-5.360184610E-2,-1.038440317E-1,-2.458660305E-2
3.328779583E0,-4.734066129E-2,-1.001789495E-1,-2.580829710E-2
3.331161146E0,-4.245388508E-2,-9.529217333E-2,-2.336490713E-2
3.333542708E0,-3.497100621E-2,-8.918370306E-2,-1.969982497E-2
3.335924271E0,-2.764083818E-2,-8.292251825E-2,-1.725643501E-2
3.338305833E0,-2.015795931E-2,-7.925742865E-2,-1.481304597E-2
3.340687396E0,-1.771457121E-2,-7.437065244E-2,-1.359135192E-2
3.343068958E0,-1.267508045E-2,-7.192726433E-2,-1.114796288E-2
3.345450521E0,-1.023169141E-2,-6.704048812E-2,-8.704573847E-3
3.347832083E0,-6.566607859E-3,-6.337540597E-2,-8.704573847E-3
3.350213646E0,-4.123218823E-3,-6.215370819E-2,-6.261184346E-3
3.352595208E0,-4.123218823E-3,-5.848862603E-2,-5.039489828E-3
3.354976823E0,-1.527118147E-3,-5.726693198E-2,-1.527118147E-4
3.357358385E0,9.162708884E-4,-5.482354015E-2,1.068982761E-3
3.359739948E0,2.137965523E-3,-5.360184610E-2,3.512371797E-3
3.362121510E0,4.581354558E-3,-4.993676394E-2,4.886778072E-3
3.364503073E0,4.581354558E-3,-4.871506989E-2,6.108472589E-3
3.366884635E0,7.024743594E-3,-4.627167806E-2,6.108472589E-3
3.369266198E0,7.024743594E-3,-4.504998401E-2,8.551862091E-3
3.371647760E0,8.399149403E-3,-4.504998401E-2,1.221694518E-2
3.374029323E0,9.620844387E-3,-4.382828996E-2,1.588202827E-2
3.376410885E0,1.206423342E-2,-4.504998401E-2,1.832541823E-2
3.378792448E0,1.206423342E-2,-4.260659590E-2,1.954711229E-2
3.381174010E0,1.588202827E-2,-4.138490185E-2,2.321219631E-2
3.383555573E0,1.710372418E-2,-4.123219103E-2,2.565558441E-2
3.385937187E0,1.954711229E-2,-4.001049697E-2,2.932066843E-2
3.388318750E0,2.076880634E-2,-3.878879920E-2,3.298575059E-2
3.390700312E0,2.214321308E-2,-3.634541109E-2,3.665083647E-2
3.393081875E0,2.458660305E-2,-3.634541109E-2,4.031591862E-2
3.395463437E0,2.580829710E-2,-3.878879920E-2,4.291202128E-2
3.397845000E0,2.962609194E-2,-3.634541109E-2,4.535540938E-2
3.400226562E0,3.084778599E-2,-3.512371704E-2,4.779879749E-2
3.402608125E0,3.206948191E-2,-3.374931216E-2,5.146388337E-2
3.404989687E0,3.329117596E-2,-3.374931216E-2,5.146388337E-2
3.407371250E0,3.710897267E-2,-3.008422814E-2,5.635065958E-2
3.409752812E0,3.573456407E-2,-2.764083818E-2,5.757235363E-2
3.412134375E0,3.710897267E-2,-3.130592033E-2,5.879404768E-2
3.414515937E0,3.466558084E-2,-3.130592033E-2,6.001574174E-2
3.416897500E0,3.710897267E-2,-2.886253223E-2,5.757235363E-2
3.419279115E0,3.833066672E-2,-2.764083818E-2,5.635065958E-2
3.421660677E0,3.833066672E-2,-2.641914412E-2,5.635065958E-2
3.424042240E0,3.955236077E-2,-2.641914412E-2,5.512896553E-2
3.426423802E0,4.077405483E-2,-2.519745007E-2,5.635065958E-2
3.428805365E0,4.199574888E-2,-2.397575416E-2,5.879404768E-2
3.431186927E0,4.199574888E-2,-2.397575416E-2,5.757235363E-2
3.433568490E0,4.321744293E-2,-1.786728203E-2,6.123743951E-2
3.435950052E0,4.321744293E-2,-1.435491070E-2,6.245913357E-2
3.438331615E0,4.321744293E-2,-1.191152167E-2,6.245913357E-2
3.440713177E0,4.062134400E-2,-8.246437646E-3,6.368082762E-2
3.443094740E0,4.062134400E-2,-5.803049076E-3,6.123743951E-2
3.445476302E0,3.695625812E-2,-3.359660041E-3,6.368082762E-2
3.447857865E0,3.451287001E-2,-9.162708884E-4,6.474980712E-2
3.450239479E0,2.947338112E-2,-1.068982761E-3,6.719319522E-2
3.452621042E0,2.580829710E-2,-2.290677279E-3,6.841489673E-2
3.455002604E0,1.832541823E-2,-3.512371797E-3,7.085828483E-2
3.457384167E0,1.466033421E-2,-7.177455351E-3,7.085828483E-2
3.459765729E0,8.551862091E-3,-1.084253844E-2,7.085828483E-2
3.462147292E0,6.108472589E-3,-1.450762246E-2,7.085828483E-2
3.464528854E0,-1.374406274E-3,-2.061609551E-2,6.841489673E-2
3.466910417E0,-7.482878864E-3,-2.779355086E-2,7.085828483E-2
3.469291979E0,-1.114796288E-2,-3.145863488E-2,7.330167294E-2
3.471673542E0,-1.496575773E-2,-3.512371704E-2,7.207997888E-2
3.474055104E0,-1.863084175E-2,-4.123219103E-2,6.963659078E-2
3.476436667E0,-2.473931387E-2,-4.856235534E-2,6.841489673E-2
3.478818229E0,-2.977880463E-2,-5.222744122E-2,6.841489673E-2
3.481199792E0,-3.222219273E-2,-5.467082933E-2,6.841489673E-2
3.483581406E0,-3.710897267E-2,-6.077930331E-2,7.452336699E-2
3.485962969E0,-4.077405483E-2,-6.566607952E-2,7.452336699E-2
3.488344531E0,-4.566083103E-2,-6.810946763E-2,7.696675509E-2
3.490726094E0,-4.932591692E-2,-7.040014863E-2,8.307522535E-2
3.493107656E0,-5.299099907E-2,-7.406523079E-2,8.551861346E-2
3.495489219E0,-5.803048983E-2,-7.895200700E-2,8.933641016E-2
3.497870781E0,-6.169557199E-2,-8.506047726E-2,9.177979827E-2
3.500252344E0,-6.154286116E-2,-8.735115826E-2,9.910997003E-2
3.502633906E0,-6.398624927E-2,-8.979454637E-2,1.027750522E-1
3.505015469E0,-6.276455522E-2,-9.101624042E-2,1.088835225E-1
3.507397031E0,-5.894676223E-2,-9.223793447E-2,1.113269106E-1
3.509778594E0,-5.528167635E-2,-8.735115826E-2,1.137702987E-1
3.512160208E0,-4.779879749E-2,-8.124268800E-2,1.223221645E-1
3.514541771E0,-3.787253052E-2,-7.864658535E-2,1.249182671E-1
3.516923333E0,-2.672456764E-2,-7.375980914E-2,1.298050433E-1
3.519304896E0,-1.572931744E-2,-6.398624927E-2,1.298050433E-1
3.521686458E0,-3.359660041E-3,-5.421269313E-2,1.334701329E-1
3.524068021E0,9.009997360E-3,-4.321744293E-2,1.359135211E-1
3.526449583E0,2.260134928E-2,-3.344388679E-2,1.395785958E-1
3.528831146E0,3.497100621E-2,-2.489202656E-2,1.408002973E-1
3.531212708E0,4.871506989E-2,-1.863084175E-2,1.433963925E-1
3.533594271E0,6.719319522E-2,-8.857285604E-3,1.446180940E-1
3.535975833E0,8.322793990E-2,-3.054236295E-4,1.446180940E-1
3.538357396E0,9.819369763E-2,7.024743594E-3,1.482831687E-1
3.540738958E0,1.166718230E-1,1.328592747E-2,1.545443535E-1
3.543120573E0,1.328592747E-1,1.572931744E-2,1.569877416E-1
3.545502135E0,1.502684206E-1,1.832541823E-2,1.594311297E-1
3.547883698E0,1.675248593E-1,2.443389036E-2,1.644706279E-1
3.550265260E0,1.849340051E-1,2.458660305E-2,1.693574041E-1
3.552646823E0,2.011214644E-1,2.596100792E-2,1.742441803E-1
3.555028385E0,2.209739983E-1,3.206948191E-2,1.817270666E-1
3.557409948E0,2.370087355E-1,3.588727489E-2,1.878355294E-1
3.559791510E0,2.531961799E-1,4.092676565E-2,1.953184158E-1
3.562173073E0,2.681619525E-1,4.825693369E-2,2.038702667E-1
3.564554635E0,2.805316150E-1,5.436540768E-2,2.112004459E-1
3.566936198E0,2.904578745E-1,6.658235192E-2,2.197522968E-1
3.569317760E0,3.016058207E-1,7.406523079E-2,2.284568697E-1
3.571699323E0,3.090887070E-1,8.017370105E-2,2.370087355E-1
3.574080937E0,3.190149665E-1,8.506047726E-2,2.431172132E-1
3.576462500E0,3.263451457E-1,9.116895497E-2,2.480039895E-1
3.578844062E0,3.326063454E-1,9.727742523E-2,2.504473627E-1
3.581225625E0,3.387148082E-1,1.023169160E-1,2.528907657E-1
3.583607187E0,3.399364948E-1,1.010952219E-1,2.542651594E-1
3.585988750E0,3.374931216E-1,1.010952219E-1,2.528907657E-1
3.588370312E0,3.350497186E-1,9.727742523E-2,2.480039895E-1
3.590751875E0,3.287885487E-1,9.116895497E-2,2.418955117E-1
3.593133437E0,3.188622594E-1,8.506047726E-2,2.357870489E-1
3.595515000E0,3.077143133E-1,7.650861889E-2,2.272351831E-1
3.597896562E0,2.953446507E-1,6.658235192E-2,2.160872221E-1
3.600278177E0,2.791571915E-1,5.436540768E-2,2.063136548E-1
3.602659740E0,2.643441558E-1,4.459185153E-2,1.965401024E-1
3.605041302E0,2.481566966E-1,3.344388679E-2,1.867665499E-1
3.607422865E0,2.309002578E-1,2.733541466E-2,1.756185889E-1
3.609804427E0,2.134911120E-1,2.351761982E-2,1.658450365E-1
3.612185990E0,1.936385781E-1,2.336490713E-2,1.583621502E-1
3.614567552E0,1.724116355E-1,2.565558441E-2,1.521009654E-1
3.616949115E0,1.562241912E-1,3.161134571E-2,1.459924877E-1
3.619330677E0,1.363716573E-1,4.245388508E-2,1.409530044E-1
3.621712240E0,1.163664013E-1,5.436540768E-2,1.372879148E-1
3.624093802E0,9.773556143E-2,6.765133142E-2,1.346918195E-1
3.626475365E0,7.910472155E-2,8.444963396E-2,1.357607991E-1
3.628856927E0,5.909947306E-2,9.895725548E-2,1.333174109E-1
3.631238490E0,4.169032723E-2,1.122431830E-1,1.319430023E-1
3.633620104E0,2.305948362E-2,1.290414780E-1,1.342336833E-1
3.636001667E0,6.872031838E-3,1.374406368E-1,1.317902952E-1
3.638383229E0,-1.053711493E-2,1.507265568E-1,1.291942000E-1
3.640764792E0,-2.672456764E-2,1.603474021E-1,1.267508119E-1
3.643146354E0,-3.924693540E-2,1.699682474E-1,1.204896197E-1
3.645527917E0,-5.421269313E-2,1.771457046E-1,1.156028435E-1
3.647909479E0,-6.673506647E-2,1.818797737E-1,1.093416587E-1
3.650291042E0,-7.666133344E-2,1.866138428E-1,1.007898003E-1
3.652672604E0,-8.536590636E-2,1.913478971E-1,9.330692142E-2
3.655054167E0,-9.284878522E-2,1.913478971E-1,8.597674966E-2
3.657435729E0,-9.666658193E-2,1.960819662E-1,7.986827940E-2
3.659817344E0,-1.053711548E-1,1.960819662E-1,7.253811508E-2
3.662198906E0,-1.079672500E-1,1.971509457E-1,6.261184067E-2
3.664580469E0,-1.079672500E-1,1.971509457E-1,5.650337040E-2
3.666962031E0,-1.093416587E-1,2.006633282E-1,4.917320609E-2
3.669343594E0,-1.105633527E-1,2.104368806E-1,4.062134400E-2
3.671725156E0,-1.119377613E-1,2.163926363E-1,3.436015919E-2
3.674106719E0,-1.094943732E-1,2.284568697E-1,2.458660305E-2
3.676488281E0,-1.072036922E-1,2.441861928E-1,1.847812906E-2
3.678869844E0,-1.049130186E-1,2.611372173E-1,9.773556143E-3
3.681251406E0,-1.050657257E-1,2.841966748E-1,4.886778072E-3
3.683632969E0,-1.027750522E-1,3.096995652E-1,-1.374406274E-3
3.686014531E0,-1.003316641E-1,3.374931216E-1,-5.039489828E-3
3.688396146E0,-1.030804738E-1,3.617742956E-1,-8.857285604E-3
3.690777656E0,-1.032331884E-1,3.872771561E-1,-1.252236869E-2
3.693159271E0,-1.033858955E-1,4.126273096E-1,-1.389677543E-2
3.695540833E0,-1.009425074E-1,4.333961308E-1,-1.389677543E-2
3.697922396E0,-1.010952219E-1,4.466820657E-1,-1.756185852E-2
3.700303958E0,-9.865183383E-2,4.624113739E-1,-1.527118124E-2
3.702685521E0,-9.239064902E-2,4.685198367E-1,-1.160609815E-2
3.705067083E0,-8.368607610E-2,4.698942602E-1,-7.788302377E-3
3.707448646E0,-7.375980914E-2,4.686725736E-1,-1.679830020E-3
3.709830208E0,-6.627693027E-2,4.627167881E-1,5.650337320E-3
3.712211771E0,-5.131116882E-2,4.555393457E-1,1.313321572E-2
3.714593333E0,-3.878879920E-2,4.483618736E-1,1.924168877E-2
3.716974896E0,-2.519745007E-2,4.375193417E-1,2.428117767E-2
3.719356510E0,-1.023169141E-2,4.266768098E-1,2.932066843E-2
3.721738073E0,4.886778072E-3,4.135435820E-1,3.420744836E-2
3.724119635E0,2.229592577E-2,3.978142738E-1,3.802524135E-2
3.726501198E0,3.726168349E-2,3.773508966E-1,3.817795217E-2
3.728882760E0,5.100574717E-2,3.532224298E-1,4.184303805E-2
3.731264323E0,6.352811307E-2,3.264978528E-1,4.199574888E-2
3.733645885E0,7.360709459E-2,2.987042964E-1,4.581354558E-2
3.736027448E0,8.124268800E-2,2.660239935E-1,4.581354558E-2
3.738409010E0,8.521319181E-2,2.309002578E-1,4.963133857E-2
3.740790573E0,9.162709117E-2,1.969982386E-1,4.978405312E-2
3.743172187E0,9.422318637E-2,1.641651988E-1,4.856235534E-2
3.745553750E0,9.681928903E-2,1.327065676E-1,4.627167806E-2
3.747935312E0,9.697200358E-2,1.035386100E-1,4.138490185E-2
3.750316875E0,9.712471068E-2,7.559234649E-2,3.420744836E-2
3.752698437E0,9.712471068E-2,4.886778072E-2,2.443389036E-2
3.755080000E0,9.483403713E-2,2.947338112E-2,1.588202827E-2
3.757461562E0,9.361234307E-2,8.704573847E-3,7.330167107E-3
3.759843125E0,8.872556686E-2,-8.399149403E-3,-3.665083554E-3
3.762224687E0,8.750387281E-2,-2.168507688E-2,-1.099525020E-2
3.764606250E0,8.368607610E-2,-3.268032894E-2,-1.588202827E-2
3.766987812E0,8.002099395E-2,-4.123219103E-2,-2.443389036E-2
3.769369375E0,7.253811508E-2,-4.734066129E-2,-3.054236248E-2
3.771750937E0,6.765133142E-2,-5.100574717E-2,-3.420744836E-2
3.774132552E0,6.139015034E-2,-5.115845799E-2,-3.542914242E-2
3.776514115E0,5.390727147E-2,-4.749337584E-2,-3.420744836E-2
3.778895677E0,4.902049154E-2,-4.382828996E-2,-3.054236248E-2
3.781277240E0,4.275930673E-2,-4.260659590E-2,-2.702999115E-2
3.783658802E0,3.665083647E-2,-4.016320780E-2,-2.092151903E-2
3.786040365E0,2.794626169E-2,-3.665083647E-2,-1.603474095E-2
3.788421927E0,2.061609551E-2,-3.420744836E-2,-1.114796288E-2
3.790803490E0,1.313321572E-2,-2.809897438E-2,-7.482878864E-3
3.793185052E0,4.428642802E-3,-2.214321308E-2,-3.817795310E-3
3.795566615E0,-5.497625098E-3,-1.725643501E-2,-3.817795310E-3
3.797948177E0,-1.298050396E-2,-8.857285604E-3,-3.970507067E-3
3.800329792E0,-2.168507688E-2,-1.679830020E-3,-3.970507067E-3
3.802711354E0,-2.916795574E-2,1.985253533E-3,-2.748812549E-3
3.805092917E0,-3.665083647E-2,5.497625098E-3,-3.970507067E-3
3.807474479E0,-4.902049154E-2,1.038440317E-2,-5.344913341E-3
3.809856042E0,-5.650337040E-2,1.389677543E-2,-5.344913341E-3
3.812237604E0,-6.642963737E-2,1.878355257E-2,-4.123218823E-3
3.814619167E0,-7.635590434E-2,2.351761982E-2,-2.901524538E-3
3.817000729E0,-8.643488586E-2,3.084778599E-2,-4.275931045E-3
3.819382292E0,-9.513945878E-2,3.558185324E-2,-5.497625098E-3
3.821763854E0,-1.062874198E-1,4.520269856E-2,-5.497625098E-3
3.824145417E0,-1.162136942E-1,5.482354015E-2,-8.093725890E-3
3.826526979E0,-1.275143623E-1,6.322269142E-2,-1.053711493E-2
3.828908594E0,-1.386623234E-1,7.162184268E-2,-1.435491070E-2
3.831290156E0,-1.499630064E-1,8.124268800E-2,-1.801999472E-2
3.833671719E0,-1.637070626E-1,9.086353332E-2,-2.061609551E-2
3.836053281E0,-1.736333370E-1,9.819369763E-2,-2.305948362E-2
3.838434844E0,-1.860029846E-1,1.041494608E-1,-2.183778957E-2
3.840816406E0,-1.973036677E-1,1.113269106E-1,-2.199050039E-2
3.843197969E0,-2.096733153E-1,1.149920002E-1,-2.076880634E-2
3.845579531E0,-2.232646793E-1,1.185043678E-1,-1.588202827E-2
3.847961094E0,-2.356343269E-1,1.197260618E-1,-9.773556143E-3
3.850342656E0,-2.467822880E-1,1.209477559E-1,-1.221694518E-3
3.852724219E0,-2.579302490E-1,1.209477559E-1,6.108472589E-3
3.855105833E0,-2.664821148E-1,1.172826737E-1,1.710372418E-2
3.857487396E0,-2.788517773E-1,1.148392856E-1,2.932066843E-2
3.859868958E0,-2.886253297E-1,1.039967462E-1,3.909422457E-2
3.862250521E0,-2.971771955E-1,9.177979827E-2,5.131116882E-2
3.864632083E0,-3.019112647E-1,7.727217674E-2,6.612421572E-2
3.867013646E0,-3.054236174E-1,6.032116711E-2,7.834116369E-2
3.869395208E0,-3.103103936E-1,4.092676565E-2,8.704573661E-2
3.871776771E0,-3.151971996E-1,2.764083818E-2,9.804098308E-2
3.874158333E0,-3.150444627E-1,1.435491070E-2,1.065928489E-1
3.876539896E0,-3.161134422E-1,4.734066315E-3,1.140757278E-1
3.878921510E0,-3.135173619E-1,-4.886778072E-3,1.214058921E-1
3.881303073E0,-3.084778786E-1,-8.551862091E-3,1.299577504E-1
3.883684635E0,-3.035911024E-1,-1.084253844E-2,1.349972486E-1
3.886066198E0,-2.948864996E-1,-1.206423342E-2,1.374406368E-1
3.888447760E0,-2.849602401E-1,-1.313321572E-2,1.398840249E-1
3.890829323E0,-2.738122940E-1,-1.435491070E-2,1.411057115E-1
3.893210885E0,-2.614426315E-1,-1.191152167E-2,1.386623234E-1
3.895592448E0,-2.489202619E-1,-1.420219894E-2,1.388150454E-1
3.897974010E0,-2.341072112E-1,-1.542389300E-2,1.351499557E-1
3.900355573E0,-2.241809368E-1,-1.527118124E-2,1.302631795E-1
3.902737135E0,-2.142546773E-1,-1.771457121E-2,1.265980899E-1
3.905118750E0,-2.057028115E-1,-1.649287529E-2,1.241547018E-1
3.907500260E0,-1.982199401E-1,-1.527118124E-2,1.229330078E-1
3.909881875E0,-1.919587553E-1,-1.771457121E-2,1.180462316E-1
3.912263437E0,-1.870719790E-1,-1.893626526E-2,1.131594554E-1
3.914645000E0,-1.834068894E-1,-1.649287529E-2,1.094943732E-1
3.917026562E0,-1.846285909E-1,-1.771457121E-2,1.058292910E-1
3.919408125E0,-1.834068894E-1,-1.771457121E-2,1.009425074E-1
3.921789687E0,-1.872246861E-1,-2.015795931E-2,9.361234307E-2
3.924171250E0,-1.896680743E-1,-2.382304333E-2,8.628217876E-2
3.926552812E0,-1.947075576E-1,-2.519745007E-2,8.383878320E-2
3.928934375E0,-1.995943487E-1,-2.764083818E-2,8.017370105E-2
3.931315937E0,-2.058555335E-1,-3.008422814E-2,7.650861889E-2
3.933697552E0,-2.145601064E-1,-3.252761811E-2,7.269082218E-2
3.936079115E0,-2.244863659E-1,-3.619270027E-2,7.146912813E-2
3.938460677E0,-2.344126403E-1,-4.001049697E-2,6.780404598E-2
3.940842240E0,-2.455606014E-1,-4.489727318E-2,6.780404598E-2
3.943223802E0,-2.589992285E-1,-5.833591148E-2,6.902574003E-2
3.945605365E0,-2.725905776E-1,-6.566607952E-2,6.780404598E-2
3.947986927E0,-2.837385535E-1,-7.666133344E-2,6.780404598E-2
3.950368490E0,-2.973299026E-1,-8.521319181E-2,6.520794332E-2
3.952750052E0,-3.072561622E-1,-9.376505762E-2,6.032116711E-2
3.955131615E0,-3.171824515E-1,-1.047603041E-1,5.665608495E-2
3.957513229E0,-3.269560039E-1,-1.157555580E-1,5.299099907E-2
3.959894792E0,-3.356605768E-1,-1.243074164E-1,4.932591692E-2
3.962276354E0,-3.405473530E-1,-1.304158866E-1,4.688252881E-2
3.964657917E0,-3.443651497E-1,-1.365243644E-1,4.321744293E-2
3.967039479E0,-3.468085229E-1,-1.401894391E-1,3.344388679E-2
3.969421042E0,-3.480302393E-1,-1.438545287E-1,2.977880463E-2
3.971802604E0,-3.494046330E-1,-1.475196183E-1,2.244863659E-2
3.974184167E0,-3.494046330E-1,-1.487413049E-1,1.389677543E-2
3.976565729E0,-3.481829464E-1,-1.511846930E-1,1.007897966E-2
3.978947292E0,-3.457395434E-1,-1.560714692E-1,7.788302377E-3
3.981328854E0,-3.419217467E-1,-1.585148573E-1,5.344913341E-3
3.983710417E0,-3.407000601E-1,-1.597365588E-1,4.581354442E-4
3.986092031E0,-3.370349705E-1,-1.670667231E-1,-7.635590737E-4
3.988473594E0,-3.370349705E-1,-1.670667231E-1,-3.206948051E-3
3.990855156E0,-3.332171738E-1,-1.705790907E-1,-1.985253533E-3
3.993236719E0,-3.295520842E-1,-1.705790907E-1,4.581354442E-4
3.995618281E0,-3.232909143E-1,-1.681357026E-1,1.679830020E-3
3.997999844E0,-3.196258247E-1,-1.681357026E-1,6.566607859E-3
4.000381406E0,-3.158080280E-1,-1.620272398E-1,7.788302377E-3
4.002762969E0,-3.084778786E-1,-1.571404636E-1,1.023169141E-2
4.005144531E0,-3.072561622E-1,-1.485885978E-1,1.267508045E-2
4.007526094E0,-3.048127890E-1,-1.400367320E-1,1.756185852E-2
4.009907708E0,-3.011476994E-1,-1.327065676E-1,1.878355257E-2
4.012289271E0,-2.987042964E-1,-1.206423342E-1,2.000524849E-2
4.014670833E0,-2.925958335E-1,-1.084253863E-1,2.244863659E-2
4.017052396E0,-2.913741469E-1,-9.865183383E-2,2.489202656E-2
4.019433958E0,-2.877090573E-1,-9.147437662E-2,2.489202656E-2
4.021815521E0,-2.828222811E-1,-8.170082420E-2,2.244863659E-2
4.024197083E0,-2.777827978E-1,-7.314895838E-2,2.244863659E-2
4.026578646E0,-2.716743052E-1,-6.459710002E-2,2.122694254E-2
4.028960208E0,-2.655658424E-1,-5.619794875E-2,2.122694254E-2
4.031341771E0,-2.606790662E-1,-5.131116882E-2,1.878355257E-2
4.033723385E0,-2.544178963E-1,-4.642439261E-2,1.511846948E-2
4.036104948E0,-2.470877171E-1,-4.398100078E-2,1.023169141E-2
4.038486510E0,-2.396048307E-1,-4.520269856E-2,7.788302377E-3
4.040868073E0,-2.322746664E-1,-4.642439261E-2,4.123218823E-3
4.043249635E0,-2.211267054E-1,-4.749337584E-2,4.581354442E-4
4.045631198E0,-2.148655206E-1,-4.749337584E-2,-4.428642802E-3
4.048012760E0,-2.061609477E-1,-4.871506989E-2,-6.872031838E-3
4.050394323E0,-2.000524700E-1,-4.993676394E-2,-9.315420873E-3
4.052775885E0,-1.925695986E-1,-5.115845799E-2,-1.175880991E-2
4.055157448E0,-1.838650256E-1,-5.467082933E-2,-1.160609815E-2
4.057539010E0,-1.777565479E-1,-5.589252338E-2,-1.404948719E-2
4.059920625E0,-1.714953631E-1,-5.467082933E-2,-1.527118124E-2
4.062302187E0,-1.615691036E-1,-5.818320066E-2,-1.649287529E-2
4.064683750E0,-1.579040140E-1,-5.940489471E-2,-1.771457121E-2
4.067065312E0,-1.491994411E-1,-5.940489471E-2,-1.771457121E-2
4.069446875E0,-1.429382563E-1,-6.184828654E-2,-2.015795931E-2
4.071828437E0,-1.380514801E-1,-6.536065787E-2,-1.878355257E-2
4.074210000E0,-1.293469071E-1,-6.291726977E-2,-2.367033064E-2
4.076591562E0,-1.218640283E-1,-6.291726977E-2,-2.367033064E-2
4.078973125E0,-1.181989461E-1,-6.291726977E-2,-2.367033064E-2
4.081354687E0,-1.145338640E-1,-6.047387794E-2,-2.489202656E-2
4.083736302E0,-1.108687744E-1,-5.925218388E-2,-2.244863659E-2
4.086117865E0,-1.070509851E-1,-5.803048983E-2,-2.122694254E-2
4.088499427E0,-1.070509851E-1,-5.787777901E-2,-1.756185852E-2
4.090880990E0,-1.070509851E-1,-5.909947306E-2,-1.511846948E-2
4.093262552E0,-1.094943732E-1,-5.314370990E-2,-1.023169141E-2
4.095644115E0,-1.107160673E-1,-4.947862774E-2,-7.788302377E-3
4.098025677E0,-1.145338640E-1,-4.581354558E-2,-7.788302377E-3
4.100407240E0,-1.194206402E-1,-4.214845970E-2,-7.788302377E-3
4.102788802E0,-1.207950488E-1,-3.741439432E-2,-9.009997360E-3
4.105170365E0,-1.220167428E-1,-3.252761811E-2,-9.162709117E-3
4.107551979E0,-1.246128380E-1,-2.397575416E-2,-1.282779220E-2
4.109933542E0,-1.246128380E-1,-2.168507688E-2,-1.527118124E-2
4.112315104E0,-1.258345395E-1,-1.557660475E-2,-1.893626526E-2
4.114696667E0,-1.272089481E-1,-1.313321572E-2,-2.382304333E-2
4.117078229E0,-1.272089481E-1,-1.328592747E-2,-2.870982140E-2
4.119459792E0,-1.259872466E-1,-1.328592747E-2,-3.603998944E-2
4.121841354E0,-1.272089481E-1,-1.450762246E-2,-4.107947648E-2
4.124222917E0,-1.284306347E-1,-1.939439960E-2,-4.474456236E-2
4.126604479E0,-1.259872466E-1,-2.428117767E-2,-4.718795046E-2
4.128986042E0,-1.247655526E-1,-3.023693897E-2,-4.825693369E-2
4.131367656E0,-1.235438585E-1,-3.390202299E-2,-4.947862774E-2
4.133749219E0,-1.221694499E-1,-4.367557913E-2,-5.192201585E-2
4.136130781E0,-1.185043678E-1,-4.840964451E-2,-5.070032179E-2
4.138512344E0,-1.146865711E-1,-5.451811850E-2,-5.192201585E-2
4.140893906E0,-1.097997949E-1,-5.573981255E-2,-5.192201585E-2
4.143275469E0,-1.035386100E-1,-5.680879578E-2,-4.703523964E-2
4.145657031E0,-9.849911928E-2,-5.558710173E-2,-4.688252881E-2
4.148038594E0,-9.239064902E-2,-4.947862774E-2,-4.688252881E-2
4.150420156E0,-8.628217876E-2,-3.970507160E-2,-4.321744293E-2
4.152801719E0,-8.261708915E-2,-2.886253223E-2,-4.077405483E-2
4.155183333E0,-7.895200700E-2,-1.542389300E-2,-3.726168349E-2
4.157564896E0,-7.773031294E-2,3.054236295E-4,-3.481829539E-2
4.159946458E0,-7.788302749E-2,1.847812906E-2,-3.603998944E-2
4.162328021E0,-7.788302749E-2,3.787253052E-2,-3.359659761E-2
4.164709583E0,-8.047912270E-2,5.619794875E-2,-2.886253223E-2
4.167091146E0,-8.170082420E-2,7.437065244E-2,-2.764083818E-2
4.169472708E0,-8.551861346E-2,9.254335612E-2,-2.397575416E-2
4.171854271E0,-8.811471611E-2,1.094943732E-1,-1.924168877E-2
4.174235833E0,-9.193251282E-2,1.240019947E-1,-1.679829881E-2
4.176617396E0,-9.437590092E-2,1.386623234E-1,-1.557660475E-2
4.178998958E0,-1.020114943E-1,1.531699449E-1,-1.557660475E-2
4.181380573E0,-1.082726792E-1,1.627907902E-1,-1.572931744E-2
4.183762135E0,-1.119377613E-1,1.713426560E-1,-1.695101149E-2
4.186143698E0,-1.157555580E-1,1.821851879E-1,-1.817270555E-2
4.188525260E0,-1.157555580E-1,1.918060333E-1,-1.939439960E-2
4.190906823E0,-1.171299592E-1,2.015796006E-1,-1.832541823E-2
4.193288385E0,-1.159082651E-1,2.087570578E-1,-2.076880634E-2
4.195669948E0,-1.122431830E-1,2.197522968E-1,-2.199050039E-2
4.198051510E0,-1.097997949E-1,2.283041626E-1,-2.199050039E-2
4.200433073E0,-1.061347127E-1,2.391466945E-1,-2.321219631E-2
4.202814687E0,-1.012479365E-1,2.513636351E-1,-2.687728032E-2
4.205196250E0,-9.758284688E-2,2.622061968E-1,-2.932066843E-2
4.207577812E0,-9.284878522E-2,2.768665254E-1,-3.191677108E-2
4.209959375E0,-8.918370306E-2,2.901524603E-1,-3.558185324E-2
4.212340937E0,-8.796200156E-2,3.058817685E-1,-3.436015919E-2
4.214722500E0,-8.429691941E-2,3.193204105E-1,-3.558185324E-2
4.217104062E0,-7.941014320E-2,3.350497186E-1,-3.436015919E-2
4.219485625E0,-8.078455180E-2,3.497100472E-1,-3.329117596E-2
4.221867187E0,-7.589777559E-2,3.629959822E-1,-3.206948191E-2
4.224248750E0,-7.345438004E-2,3.703261614E-1,-3.084778599E-2
4.226630312E0,-6.978929788E-2,3.776563108E-1,-3.206948191E-2
4.229011927E0,-6.230641901E-2,3.837648034E-1,-3.329117596E-2
4.231393490E0,-5.864133686E-2,3.837648034E-1,-3.206948191E-2
4.233775052E0,-5.238015205E-2,3.837648034E-1,-3.451287001E-2
4.236156615E0,-4.504998401E-2,3.837648034E-1,-3.695625812E-2
4.238538177E0,-3.512371704E-2,3.813214004E-1,-3.802524135E-2
4.240919740E0,-2.886253223E-2,3.778090179E-1,-3.802524135E-2
4.243301302E0,-1.893626526E-2,3.753656447E-1,-3.924693540E-2
4.245682865E0,-9.009997360E-3,3.694098890E-1,-4.291202128E-2
4.248064427E0,-3.054236295E-4,3.669664860E-1,-4.657710344E-2
4.250445990E0,7.024743594E-3,3.657447994E-1,-4.779879749E-2
4.252827604E0,1.206423342E-2,3.634541333E-1,-5.024218559E-2
4.255209167E0,1.817270555E-2,3.646758199E-1,-5.131116882E-2
4.257590729E0,2.321219631E-2,3.622324169E-1,-5.864133686E-2
4.259972292E0,2.305948362E-2,3.657447994E-1,-6.123743951E-2
4.262353854E0,2.183778957E-2,3.669664860E-1,-6.856760383E-2
4.264735417E0,2.061609551E-2,3.694098890E-1,-7.345438004E-2
4.267116979E0,2.168507688E-2,3.718532622E-1,-7.834116369E-2
4.269498542E0,2.046338283E-2,3.717005551E-1,-8.444963396E-2
4.271880156E0,2.168507688E-2,3.704788685E-1,-8.933641016E-2
4.274261719E0,2.535016090E-2,3.668137789E-1,-9.177979827E-2
4.276643281E0,3.038965166E-2,3.645231128E-1,-9.300149232E-2
4.279024844E0,3.909422457E-2,3.608580232E-1,-9.544488788E-2
4.281406406E0,5.024218559E-2,3.536805511E-1,-9.666658193E-2
4.283787969E0,6.261184067E-2,3.465031087E-1,-9.651386738E-2
4.286169531E0,7.635590434E-2,3.403946459E-1,-9.895725548E-2
4.288551094E0,8.872556686E-2,3.356605768E-1,-9.773556143E-2
4.290932656E0,1.010952219E-1,3.319954872E-1,-1.012479365E-1
4.293314219E0,1.123958975E-1,3.272614181E-1,-1.036913246E-1
4.295695781E0,1.209477559E-1,3.248180151E-1,-1.073564067E-1
4.298077396E0,1.247655526E-1,3.223746419E-1,-1.122431830E-1
4.300458958E0,1.296523362E-1,3.272614181E-1,-1.207950488E-1
4.302840521E0,1.294996142E-1,3.297048211E-1,-1.293469071E-1
4.305222083E0,1.282779276E-1,3.332171738E-1,-1.356080920E-1
4.307603646E0,1.256818175E-1,3.367295563E-1,-1.478250325E-1
4.309985208E0,1.206423342E-1,3.403946459E-1,-1.612636745E-1
4.312366771E0,1.130067408E-1,3.463504016E-1,-1.724116355E-1
4.314748333E0,1.079672500E-1,3.510844707E-1,-1.846285909E-1
4.317129896E0,1.017060652E-1,3.545968235E-1,-1.969982386E-1
4.319511510E0,9.300149232E-2,3.605526090E-1,-2.128802687E-1
4.321893073E0,8.658760041E-2,3.628432751E-1,-2.240282297E-1
4.324274635E0,8.032641560E-2,3.675773442E-1,-2.386885732E-1
4.326656198E0,7.284353673E-2,3.710896969E-1,-2.535016239E-1
4.329037760E0,6.520794332E-2,3.758237660E-1,-2.657185495E-1
4.331419323E0,5.650337040E-2,3.770454824E-1,-2.793098986E-1
4.333800885E0,4.779879749E-2,3.756710589E-1,-2.915268540E-1
4.336182448E0,3.909422457E-2,3.767400384E-1,-3.013004065E-1
4.338564010E0,2.901524492E-2,3.767400384E-1,-3.087832928E-1
4.340945573E0,1.908897609E-2,3.704788685E-1,-3.161134422E-1
4.343327187E0,7.941014133E-3,3.643703759E-1,-3.222219348E-1
4.345708750E0,-1.985253533E-3,3.570402265E-1,-3.246653080E-1
4.348090312E0,-1.175880991E-2,3.460449576E-1,-3.246653080E-1
4.350471875E0,-2.168507688E-2,3.350497186E-1,-3.222219348E-1
4.352853437E0,-3.390202299E-2,3.180987239E-1,-3.197785318E-1
4.355235000E0,-4.489727318E-2,3.011476994E-1,-3.161134422E-1
4.357616562E0,-5.726693198E-2,2.852656841E-1,-3.075616062E-1
4.359998125E0,-6.581879407E-2,2.658712566E-1,-3.038965166E-1
4.362379687E0,-7.314895838E-2,2.489202619E-1,-2.976353168E-1
4.364761250E0,-7.788302749E-2,2.258607745E-1,-2.903051674E-1
4.367142865E0,-7.895200700E-2,1.991362125E-1,-2.803788781E-1
4.369524427E0,-8.002099395E-2,1.713426560E-1,-2.693836391E-1
4.371905990E0,-7.605048269E-2,1.423274130E-1,-2.557922900E-1
4.374287552E0,-6.948387623E-2,1.084253863E-1,-2.409792393E-1
4.376669115E0,-5.680879578E-2,7.345438004E-2,-2.249445021E-1
4.379050677E0,-4.291202128E-2,4.092676565E-2,-2.063136548E-1
4.381432240E0,-3.023693897E-2,-1.527118147E-4,-1.829487532E-1
4.383813802E0,-1.496575773E-2,-3.634541109E-2,-1.594311297E-1
4.386195365E0,1.527118147E-3,-7.620319724E-2,-1.372879148E-1
4.388576979E0,1.542389300E-2,-1.123958975E-1,-1.127013192E-1
4.390958542E0,2.932066843E-2,-1.437018216E-1,-8.796200156E-2
4.393340104E0,4.459185153E-2,-1.701209545E-1,-6.337540597E-2
4.395721667E0,5.971032009E-2,-1.881409585E-1,-4.001049697E-2
4.398103229E0,7.605048269E-2,-2.024958730E-1,-1.420219894E-2
4.400471510E0,9.361234307E-2,-2.180724740E-1,7.941014133E-3
4.402866354E0,1.085781008E-1,-2.312056869E-1,2.519745007E-2
4.405271927E0,1.223221645E-1,-2.408265322E-1,4.123219103E-2
4.407677500E0,1.386623234E-1,-2.478512824E-1,5.848862603E-2
4.410083073E0,1.560714692E-1,-2.489202619E-1,7.559234649E-2
4.412512344E0,1.908897758E-1,-2.279987335E-1,1.001789495E-1
4.414941510E0,2.093679011E-1,-2.072299272E-1,1.123958975E-1
4.417370677E0,2.266243398E-1,-1.791309565E-1,1.221694499E-1
4.419799844E0,2.389939874E-1,-1.572931707E-1,1.294996142E-1
4.422229010E0,2.538070381E-1,-1.281252056E-1,1.343863904E-1
4.424658177E0,2.672456801E-1,-1.000262350E-1,1.417165697E-1
4.427087344E0,2.782409191E-1,-7.085828483E-2,1.466033459E-1
4.429516510E0,2.855710983E-1,-4.046862945E-2,1.539335102E-1
4.431945677E0,2.954973578E-1,-1.130067464E-2,1.624853760E-1
4.434374896E0,3.052709103E-1,2.397575416E-2,1.759240031E-1
4.436804062E0,3.138227761E-1,5.451811850E-2,1.879882365E-1
4.439233229E0,3.211529553E-1,9.101624042E-2,2.014268786E-1
4.441662396E0,3.272614181E-1,1.250709742E-1,2.160872221E-1
4.444091562E0,3.333698809E-1,1.566823274E-1,2.356343269E-1
4.446520729E0,3.358132839E-1,1.835595965E-1,2.527380586E-1
4.448949896E0,3.370349705E-1,2.102841735E-1,2.698417902E-1
4.451379115E0,3.333698809E-1,2.333436459E-1,2.893888950E-1
4.453808281E0,3.258870244E-1,2.553341687E-1,3.077143133E-1
4.456223906E0,3.184041381E-1,2.759502530E-1,3.248180151E-1
4.458666615E0,3.048127890E-1,2.881672084E-1,3.417690396E-1
4.461095781E0,2.924431264E-1,3.002314270E-1,3.539859951E-1
4.463511406E0,2.762556672E-1,3.086305857E-1,3.625378609E-1
4.465954115E0,2.602209449E-1,3.049654961E-1,3.649812341E-1
4.468383281E0,2.428117841E-1,3.035911024E-1,3.662029207E-1
4.470798958E0,2.255553454E-1,2.987042964E-1,3.648285270E-1
4.473241615E0,2.107423097E-1,2.877090573E-1,3.599417508E-1
4.475670781E0,1.945548505E-1,2.742704153E-1,3.550549746E-1
4.478086458E0,1.785201132E-1,2.596100867E-1,3.489464819E-1
4.480529167E0,1.637070626E-1,2.388412803E-1,3.416163325E-1
4.482958333E0,1.539335102E-1,2.157817930E-1,3.355078697E-1
4.485387500E0,1.427855492E-1,1.925695986E-1,3.293993771E-1
4.487816667E0,1.366770715E-1,1.658450365E-1,3.184041381E-1
4.490245833E0,1.305686086E-1,1.401894391E-1,3.061871827E-1
4.492675000E0,1.256818175E-1,1.195733473E-1,2.927485406E-1
4.495104167E0,1.244601309E-1,9.513945878E-2,2.756448388E-1
4.497533333E0,1.232384369E-1,7.925742865E-2,2.597627938E-1
4.499962552E0,1.256818175E-1,6.230641901E-2,2.402156889E-1
4.502391719E0,1.342336833E-1,4.642439261E-2,2.170034945E-1
4.504820885E0,1.417165697E-1,3.542914242E-2,1.974563748E-1
4.507250052E0,1.490467340E-1,2.443389036E-2,1.791309565E-1
4.509679219E0,1.589729935E-1,1.343864016E-2,1.608055383E-1
4.512108385E0,1.713426560E-1,1.374406274E-3,1.449235082E-1
4.514537552E0,1.798945218E-1,-7.177455351E-3,1.290414780E-1
4.516966719E0,1.922641695E-1,-1.572931744E-2,1.156028435E-1
4.519395885E0,2.046338320E-1,-2.535016090E-2,1.094943732E-1
4.521825104E0,2.195995897E-1,-3.008422814E-2,1.033858955E-1
4.524254271E0,2.357870489E-1,-3.619270027E-2,1.023169160E-1
4.526683437E0,2.493783981E-1,-3.603998944E-2,1.059819981E-1
4.529089479E0,2.655658424E-1,-3.588727489E-2,1.096470803E-1
4.531471042E0,2.816005945E-1,-3.466558084E-2,1.159082651E-1
4.533852604E0,2.965663373E-1,-2.962609194E-2,1.220167428E-1
4.536234167E0,3.138227761E-1,-2.107422985E-2,1.244601309E-1
4.538615729E0,3.287885487E-1,-1.130067464E-2,1.294996142E-1
4.540997292E0,3.448232710E-1,9.162708884E-4,1.331647038E-1
4.543378906E0,3.620797098E-1,1.557660475E-2,1.368297935E-1
4.545760469E0,3.805578351E-1,3.512371704E-2,1.368297935E-1
4.548142031E0,3.965925872E-1,5.344913527E-2,1.356080920E-1
4.550523594E0,4.150707126E-1,7.055285573E-2,1.356080920E-1
4.552905156E0,4.323271513E-1,9.116895497E-2,1.368297935E-1
4.555286719E0,4.508052766E-1,1.107160673E-1,1.343863904E-1
4.557668281E0,4.718795121E-1,1.278197914E-1,1.331647038E-1
4.560049844E0,4.928010404E-1,1.461452097E-1,1.319430023E-1
4.562431406E0,5.137225389E-1,1.655396074E-1,1.270562261E-1
4.564813021E0,5.347967744E-1,1.801999360E-1,1.233911440E-1
4.567194583E0,5.544965863E-1,1.924168915E-1,1.172826737E-1
4.569576146E0,5.705313683E-1,2.021904439E-1,1.111742035E-1
4.571957708E0,5.890094638E-1,2.119639963E-1,1.026223376E-1
4.574339271E0,6.050441861E-1,2.180724740E-1,9.407047927E-2
4.576720833E0,6.174138784E-1,2.168507725E-1,8.185353130E-2
4.579102396E0,6.297835112E-1,2.192941606E-1,7.711946964E-2
4.581483958E0,6.407787800E-1,2.156290859E-1,6.734590977E-2
4.583865573E0,6.494833231E-1,2.095206082E-1,5.635065958E-2
4.586247135E0,6.569662094E-1,2.011214644E-1,5.024218559E-2
4.588628698E0,6.606312990E-1,1.937913001E-1,4.535540938E-2
4.591010260E0,6.668924689E-1,1.792836636E-1,4.046862945E-2
4.593391823E0,6.681141853E-1,1.682884246E-1,3.680354729E-2
4.595773385E0,6.670452356E-1,1.598892659E-1,3.436015919E-2
4.598154948E0,6.656708121E-1,1.513374150E-1,2.702999115E-2
4.600536510E0,6.632274389E-1,1.415638477E-1,2.336490713E-2
4.602918073E0,6.571189165E-1,1.342336833E-1,1.969982497E-2
4.605299687E0,6.571189165E-1,1.256818175E-1,1.481304597E-2
4.607681250E0,6.571189165E-1,1.207950488E-1,9.926267900E-3
4.610062812E0,6.558972597E-1,1.207950488E-1,5.039489828E-3
4.612444375E0,6.533011198E-1,1.207950488E-1,1.527118147E-4
4.614825937E0,6.545228362E-1,1.195733473E-1,-4.734066315E-3
4.617207500E0,6.545228362E-1,1.232384369E-1,-7.177455351E-3
4.619589062E0,6.569662094E-1,1.243074164E-1,-1.206423342E-2
4.621970625E0,6.606312990E-1,1.232384369E-1,-1.328592747E-2
4.624352187E0,6.644490957E-1,1.244601309E-1,-1.572931744E-2
4.626733802E0,6.717792749E-1,1.220167428E-1,-1.695101149E-2
4.629115365E0,6.792621613E-1,1.171299592E-1,-1.695101149E-2
4.631496927E0,6.867450476E-1,1.087308154E-1,-1.924168877E-2
4.633878490E0,6.992673874E-1,1.015533581E-1,-1.924168877E-2
4.636260052E0,7.140804529E-1,9.437590092E-2,-1.801999472E-2
4.638641615E0,7.290462255E-1,8.597674966E-2,-1.420219894E-2
4.641023177E0,7.466080785E-1,7.269082218E-2,-6.719320081E-3
4.643404740E0,7.676823139E-1,5.711421743E-2,-4.275931045E-3
4.645786302E0,7.876875401E-1,4.016320780E-2,-4.581354442E-4
4.648167917E0,8.089144826E-1,2.336490713E-2,7.024743594E-3
4.650549479E0,8.325847983E-1,9.009997360E-3,1.084253844E-2
4.652931042E0,8.574768305E-1,-6.719320081E-3,1.328592747E-2
4.655312604E0,8.835905790E-1,-2.458660305E-2,2.199050039E-2
4.657694167E0,9.110786915E-1,-4.138490185E-2,2.947338112E-2
4.660075729E0,9.359707236E-1,-5.711421743E-2,3.939964995E-2
4.662457292E0,9.596410394E-1,-6.902574003E-2,4.810422286E-2
4.664838854E0,9.833113551E-1,-8.093725890E-2,5.925218388E-2
4.667220469E0,1.003163934E0,-8.811471611E-2,6.551336497E-2
4.669602031E0,1.023016453E0,-9.040539712E-2,7.162184268E-2
4.671983594E0,1.044243336E0,-9.025268257E-2,7.788302749E-2
4.674365156E0,1.060430884E0,-9.132166207E-2,8.399149776E-2
4.676746719E0,1.074022174E0,-9.605573118E-2,8.903098851E-2
4.679128281E0,1.088987947E0,-1.020114943E-1,9.513945878E-2
4.681509844E0,1.102732062E0,-1.067455560E-1,9.895725548E-2
4.683891406E0,1.112658262E0,-1.152974218E-1,1.026223376E-1
4.686272969E0,1.123806238E0,-1.212531775E-1,1.038440317E-1
4.688654583E0,1.131289124E0,-1.284306347E-1,1.064401343E-1
4.691036146E0,1.140146375E0,-1.368297935E-1,1.076618284E-1
4.693417708E0,1.150072694E0,-1.453816444E-1,1.076618284E-1
4.695799271E0,1.157555580E0,-1.537808031E-1,1.041494608E-1
4.698180833E0,1.162442327E0,-1.623326540E-1,9.926267713E-2
4.700562396E0,1.171146870E0,-1.731752008E-1,9.681928903E-2
4.702943958E0,1.177408099E0,-1.840177327E-1,9.315420687E-2
4.705325521E0,1.182447553E0,-1.950129867E-1,9.086353332E-2
4.707707083E0,1.189930439E0,-2.070772201E-1,8.964183182E-2
4.710088698E0,1.192526579E0,-2.166980654E-1,8.964183182E-2
4.712470260E0,1.192526579E0,-2.289150059E-1,8.964183182E-2
4.714851823E0,1.195122719E0,-2.397575527E-1,8.719844371E-2
4.717233385E0,1.197566032E0,-2.507528067E-1,8.612946421E-2
4.719614948E0,1.198940516E0,-2.640387416E-1,8.857285231E-2
4.721996510E0,1.197718740E0,-2.725905776E-1,8.735115826E-2
4.724378073E0,1.198940516E0,-2.785463631E-1,8.735115826E-2
4.726759635E0,1.201536536E0,-2.834331393E-1,8.735115826E-2
4.729141250E0,1.202758312E0,-2.846548259E-1,8.735115826E-2
4.731522812E0,1.205201626E0,-2.846548259E-1,8.735115826E-2
