"Time (s)","Acceleration x (m/s^2)","Acceleration y (m/s^2)","Acceleration z (m/s^2)"
9.993765000E-3,-4.739717960E0,8.151900291E0,3.129083633E0
1.239673400E-2,-4.739717960E0,8.151900291E0,3.129083633E0
1.479970300E-2,-3.999941587E0,6.660376549E0,2.798697948E0
1.720267200E-2,-4.754082203E0,7.991496086E0,3.287094116E0
1.960564000E-2,-4.754082203E0,7.969948769E0,3.306246996E0
2.200860900E-2,-4.754082203E0,7.969948769E0,3.306246996E0
2.441157800E-2,-4.761264801E0,7.974737167E0,3.311035156E0
2.681454700E-2,-4.761264801E0,7.974737167E0,3.311035156E0
2.921751500E-2,-4.758870125E0,7.979525566E0,3.308641195E0
3.162048400E-2,-4.732535362E0,7.934037209E0,3.294276476E0
3.410241100E-2,-4.694229603E0,7.934037209E0,3.270335436E0
3.666329700E-2,-4.679865360E0,7.917278290E0,3.222453356E0
3.922418200E-2,-4.655924320E0,7.902914047E0,3.198512554E0
4.176069200E-2,-4.660712242E0,7.881366730E0,3.186542034E0
4.423631700E-2,-4.691835880E0,7.850243568E0,3.155418634E0
4.667569200E-2,-4.694229603E0,7.874184608E0,3.105142593E0
4.917605700E-2,-4.713382721E0,7.886155128E0,3.117113113E0
5.173694200E-2,-4.742111683E0,7.878973007E0,3.093172073E0
5.429782800E-2,-4.744505882E0,7.883761406E0,3.076413393E0
5.685871300E-2,-4.744505882E0,7.867002487E0,3.071625233E0
5.941959900E-2,-4.754082203E0,7.874184608E0,3.054866791E0
6.198048400E-2,-4.770840645E0,7.867002487E0,3.088383913E0
6.454137000E-2,-4.775629044E0,7.917278290E0,3.105142593E0
6.710225500E-2,-4.761264801E0,7.950796127E0,3.174571514E0
6.966314000E-2,-4.785205841E0,8.005860329E0,3.162600994E0
7.222402600E-2,-4.768446922E0,8.013042450E0,3.164995193E0
7.478491100E-2,-4.737323761E0,8.027407646E0,3.150630713E0
7.734579700E-2,-4.718170643E0,8.077683449E0,3.117113113E0
7.990668200E-2,-4.691835880E0,8.084865570E0,3.057260752E0
8.246756700E-2,-4.689441681E0,8.084865570E0,3.035713911E0
8.502845300E-2,-4.703806400E0,8.080077171E0,3.004590511E0
8.758933800E-2,-4.722958565E0,8.044165611E0,2.983043671E0
9.015022400E-2,-4.749294281E0,8.068106651E0,2.968679190E0
9.271110900E-2,-4.763659000E0,8.089653969E0,2.975861549E0
9.527199500E-2,-4.809146881E0,8.084865570E0,2.951920509E0
9.783288000E-2,-4.797176361E0,8.096836090E0,2.975861549E0
1.003330880E-1,-4.811540604E0,8.108806610E0,3.018955231E0
1.027724110E-1,-4.806752205E0,8.127959251E0,3.050078392E0
1.052117860E-1,-4.799570084E0,8.120777130E0,3.093172073E0
1.076512130E-1,-4.797176361E0,8.106411934E0,3.138660192E0
1.100898070E-1,-4.766052723E0,8.139929771E0,3.193724394E0
1.125284530E-1,-4.744505882E0,8.168659210E0,3.253576994E0
1.149678280E-1,-4.754082203E0,8.178235054E0,3.318217516E0
1.174072550E-1,-4.780417442E0,8.171052933E0,3.318217516E0
1.198458490E-1,-4.773235321E0,8.173447609E0,3.315823555E0
1.222844420E-1,-4.778023243E0,8.187811852E0,3.323005676E0
1.247238170E-1,-4.799570084E0,8.161477089E0,3.267941475E0
1.271632450E-1,-4.792387962E0,8.190205574E0,3.248788595E0
1.296018380E-1,-4.763659000E0,8.161477089E0,3.210482836E0
1.320404840E-1,-4.770840645E0,8.156688690E0,3.205694914E0
1.344798590E-1,-4.718170643E0,8.163870811E0,3.143448114E0
1.369192340E-1,-4.718170643E0,8.137536049E0,3.157812834E0
1.393578280E-1,-4.710988045E0,8.130352974E0,3.155418634E0
1.417964740E-1,-4.694229603E0,8.137536049E0,3.129083633E0
1.442358490E-1,-4.710988045E0,8.106411934E0,3.121901512E0
1.466752760E-1,-4.727747440E0,8.082470894E0,3.138660192E0
1.491138700E-1,-4.761264801E0,8.058529854E0,3.143448114E0
1.515525150E-1,-4.761264801E0,8.068106651E0,3.114719152E0
1.539918900E-1,-4.773235321E0,8.063318253E0,3.119507074E0
1.564313170E-1,-4.756476402E0,8.082470894E0,3.119507074E0
1.588699110E-1,-4.751688480E0,8.101624489E0,3.114719152E0
1.613085050E-1,-4.722958565E0,8.082470894E0,3.093172073E0
1.637478800E-1,-4.703806400E0,8.063318253E0,3.085989952E0
1.661873070E-1,-4.708594322E0,8.068106651E0,3.081201792E0
1.686259010E-1,-4.696623802E0,8.041771889E0,3.054866791E0
1.710645470E-1,-4.694229603E0,8.053742409E0,3.071625233E0
1.735039220E-1,-4.694229603E0,8.046559334E0,3.093172073E0
1.759433490E-1,-4.706200123E0,8.046559334E0,3.114719152E0
1.783819420E-1,-4.744505882E0,8.065712929E0,3.176965714E0
1.808205360E-1,-4.758870125E0,8.058529854E0,3.234423876E0
1.832599110E-1,-4.775629044E0,8.080077171E0,3.255970955E0
1.856993380E-1,-4.794781685E0,8.084865570E0,3.244000435E0
1.881379320E-1,-4.821117401E0,8.077683449E0,3.217665434E0
1.905765780E-1,-4.804358482E0,8.060924530E0,3.210482836E0
1.930159530E-1,-4.789993763E0,8.077683449E0,3.176965714E0
1.954553800E-1,-4.756476402E0,8.075288773E0,3.160207033E0
1.978939740E-1,-4.737323761E0,8.065712929E0,3.160207033E0
2.003325670E-1,-4.730141163E0,8.053742409E0,3.133872032E0
2.027719420E-1,-4.720564842E0,8.044165611E0,3.141054153E0
2.052113700E-1,-4.696623802E0,8.022618294E0,3.153024673E0
2.076499630E-1,-4.663106918E0,8.015437126E0,3.188936234E0
2.100886090E-1,-4.670288563E0,8.013042450E0,3.164995193E0
2.125279840E-1,-4.660712242E0,7.998678207E0,3.162600994E0
2.149674110E-1,-4.675077438E0,7.979525566E0,3.141054153E0
2.174060050E-1,-4.713382721E0,7.986707687E0,3.169783354E0
2.198445990E-1,-4.699018002E0,7.984313011E0,3.157812834E0
2.222839740E-1,-4.730141163E0,7.996283531E0,3.145842552E0
2.247234010E-1,-4.720564842E0,8.010648727E0,3.148236513E0
2.271619950E-1,-4.725353241E0,8.027407646E0,3.126689672E0
2.296006400E-1,-4.718170643E0,8.056136131E0,3.109930992E0
2.320400150E-1,-4.696623802E0,8.048954010E0,3.095566273E0
2.344794420E-1,-4.689441681E0,8.029801369E0,3.102748632E0
2.369180360E-1,-4.648741722E0,8.003466606E0,3.095566273E0
2.393566300E-1,-4.665500641E0,7.991496086E0,3.062048912E0
2.417960050E-1,-4.629589081E0,7.981919289E0,3.112324953E0
2.442354320E-1,-4.622406960E0,7.993889809E0,3.112324953E0
2.466740260E-1,-4.608042240E0,7.979525566E0,3.131477594E0
2.491126720E-1,-4.636771202E0,8.001071930E0,3.145842552E0
2.515520470E-1,-4.653530121E0,8.003466606E0,3.138660192E0
2.539914740E-1,-4.655924320E0,8.013042450E0,3.176965714E0
2.564300670E-1,-4.658318043E0,8.013042450E0,3.167389154E0
2.588686610E-1,-4.679865360E0,8.015437126E0,3.160207033E0
2.613080360E-1,-4.689441681E0,8.020224571E0,3.172177553E0
2.637474630E-1,-4.715776920E0,8.025012970E0,3.191330194E0
2.661860570E-1,-4.725353241E0,8.025012970E0,3.203300714E0
2.686247030E-1,-4.725353241E0,8.022618294E0,3.188936234E0
2.710640780E-1,-4.708594322E0,8.051347733E0,3.188936234E0
2.735035050E-1,-4.701412201E0,8.060924530E0,3.200906754E0
2.759420990E-1,-4.687047958E0,8.041771889E0,3.186542034E0
2.783806920E-1,-4.694229603E0,8.051347733E0,3.227241755E0
2.808200670E-1,-4.706200123E0,8.068106651E0,3.244000435E0
2.832594950E-1,-4.720564842E0,8.063318253E0,3.260759115E0
2.856980880E-1,-4.730141163E0,8.053742409E0,3.270335436E0
2.881367340E-1,-4.754082203E0,8.036983490E0,3.253576994E0
2.905761090E-1,-4.775629044E0,8.060924530E0,3.239212275E0
2.930155360E-1,-4.778023243E0,8.070500374E0,3.210482836E0
2.954541300E-1,-4.780417442E0,8.077683449E0,3.181753874E0
2.978927240E-1,-4.758870125E0,8.092047691E0,3.145842552E0
3.003320990E-1,-4.770840645E0,8.094441414E0,3.124295473E0
3.027715260E-1,-4.768446922E0,8.106411934E0,3.088383913E0
3.052101200E-1,-4.763659000E0,8.111200333E0,3.050078392E0
3.076487650E-1,-4.763659000E0,8.123170853E0,3.030925751E0
3.100881400E-1,-4.766052723E0,8.108806610E0,3.038107872E0
3.125275670E-1,-4.756476402E0,8.106411934E0,3.033319712E0
3.149661610E-1,-4.749294281E0,8.072895050E0,3.057260752E0
3.174047550E-1,-4.756476402E0,8.080077171E0,3.050078392E0
3.198441300E-1,-4.734929085E0,8.077683449E0,3.071625233E0
3.222835570E-1,-4.730141163E0,8.068106651E0,3.062048912E0
3.247221510E-1,-4.739717960E0,8.058529854E0,3.062048912E0
3.271607970E-1,-4.703806400E0,8.036983490E0,3.052472353E0
3.296001720E-1,-4.689441681E0,8.022618294E0,3.081201792E0
3.320395470E-1,-4.696623802E0,8.003466606E0,3.095566273E0
3.344781400E-1,-4.691835880E0,8.003466606E0,3.071625233E0
3.369167860E-1,-4.687047958E0,8.020224571E0,3.078807592E0
3.393561610E-1,-4.677471161E0,8.022618294E0,3.081201792E0
3.417955880E-1,-4.679865360E0,8.041771889E0,3.100354433E0
3.442341820E-1,-4.672682762E0,8.077683449E0,3.088383913E0
3.466728280E-1,-4.658318043E0,8.082470894E0,3.074019432E0
3.491122030E-1,-4.639165878E0,8.084865570E0,3.069231272E0
3.515515780E-1,-4.665500641E0,8.096836090E0,3.090778112E0
3.539901720E-1,-4.667894840E0,8.123170853E0,3.074019432E0
3.564288170E-1,-4.672682762E0,8.075288773E0,3.071625233E0
3.588681920E-1,-4.677471161E0,8.077683449E0,3.071625233E0
3.613076200E-1,-4.672682762E0,8.065712929E0,3.074019432E0
3.637462130E-1,-4.653530121E0,8.084865570E0,3.095566273E0
3.661848590E-1,-4.665500641E0,8.108806610E0,3.126689672E0
3.686242340E-1,-4.667894840E0,8.087259293E0,3.109930992E0
3.710636090E-1,-4.665500641E0,8.084865570E0,3.124295473E0
3.735022030E-1,-4.684653282E0,8.099229813E0,3.153024673E0
3.759408490E-1,-4.677471161E0,8.070500374E0,3.133872032E0
3.783802240E-1,-4.677471161E0,8.077683449E0,3.133872032E0
3.808196510E-1,-4.667894840E0,8.094441414E0,3.155418634E0
3.832582450E-1,-4.677471161E0,8.089653969E0,3.141054153E0
3.856968380E-1,-4.718170643E0,8.080077171E0,3.124295473E0
3.881362650E-1,-4.734929085E0,8.099229813E0,3.119507074E0
3.905756400E-1,-4.730141163E0,8.125565529E0,3.124295473E0
3.930142340E-1,-4.739717960E0,8.147111893E0,3.164995193E0
3.954528800E-1,-4.708594322E0,8.161477089E0,3.141054153E0
3.978922550E-1,-4.732535362E0,8.130352974E0,3.129083633E0
4.003316820E-1,-4.713382721E0,8.142323494E0,3.157812834E0
4.027702760E-1,-4.730141163E0,8.139929771E0,3.129083633E0
4.052088700E-1,-4.727747440E0,8.166264534E0,3.141054153E0
4.076482450E-1,-4.749294281E0,8.139929771E0,3.167389154E0
4.100876720E-1,-4.725353241E0,8.139929771E0,3.210482836E0
4.125262650E-1,-4.746899605E0,8.171052933E0,3.215271235E0
4.149649110E-1,-4.732535362E0,8.166264534E0,3.184147835E0
4.174042860E-1,-4.737323761E0,8.142323494E0,3.181753874E0
4.198437130E-1,-4.722958565E0,8.120777130E0,3.188936234E0
4.222823070E-1,-4.715776920E0,8.132747650E0,3.210482836E0
4.247209010E-1,-4.715776920E0,8.132747650E0,3.193724394E0
4.271602760E-1,-4.691835880E0,8.111200333E0,3.200906754E0
4.295997030E-1,-4.687047958E0,8.084865570E0,3.198512554E0
4.320382970E-1,-4.679865360E0,8.065712929E0,3.210482836E0
4.344769420E-1,-4.687047958E0,8.041771889E0,3.232029915E0
4.369163170E-1,-4.701412201E0,8.053742409E0,3.248788595E0
4.393557450E-1,-4.696623802E0,8.025012970E0,3.258364916E0
4.417943380E-1,-4.689441681E0,8.017830849E0,3.244000435E0
4.442329320E-1,-4.699018002E0,8.001071930E0,3.232029915E0
4.466723070E-1,-4.706200123E0,7.989101410E0,3.229635954E0
4.491117340E-1,-4.665500641E0,8.005860329E0,3.196118355E0
4.515503280E-1,-4.689441681E0,7.993889809E0,3.203300714E0
4.539889740E-1,-4.675077438E0,7.984313011E0,3.191330194E0
4.564283490E-1,-4.682259083E0,7.979525566E0,3.212877274E0
4.588677760E-1,-4.675077438E0,7.991496086E0,3.232029915E0
4.613063700E-1,-4.665500641E0,7.979525566E0,3.244000435E0
4.637449630E-1,-4.667894840E0,7.998678207E0,3.267941475E0
4.661843380E-1,-4.665500641E0,7.967555046E0,3.301458597E0
4.686237650E-1,-4.651136398E0,7.972342491E0,3.301458597E0
4.710623590E-1,-4.660712242E0,7.991496086E0,3.299064636E0
4.735010050E-1,-4.646348000E0,7.967555046E0,3.289488077E0
4.759403800E-1,-4.617618561E0,7.981919289E0,3.289488077E0
4.783798070E-1,-4.620012760E0,7.941219330E0,3.318217516E0
4.808184010E-1,-4.636771202E0,7.938825607E0,3.294276476E0
4.832569950E-1,-4.651136398E0,7.917278290E0,3.296670675E0
4.856963700E-1,-4.641559601E0,7.907702446E0,3.284700155E0
4.881357970E-1,-4.672682762E0,7.907702446E0,3.299064636E0
4.905743900E-1,-4.667894840E0,7.917278290E0,3.287094116E0
4.930129840E-1,-4.687047958E0,7.898125648E0,3.289488077E0
4.954523590E-1,-4.665500641E0,7.876579285E0,3.303853035E0
4.978917860E-1,-4.672682762E0,7.850243568E0,3.318217516E0
5.003303800E-1,-4.653530121E0,7.828697205E0,3.306246996E0
5.027690260E-1,-4.667894840E0,7.835879326E0,3.296670675E0
5.052084010E-1,-4.648741722E0,7.826302528E0,3.282305956E0
5.076478280E-1,-4.667894840E0,7.850243568E0,3.294276476E0
5.100864220E-1,-4.679865360E0,7.871790886E0,3.260759115E0
5.125250150E-1,-4.670288563E0,7.852638245E0,3.241606474E0
5.149643900E-1,-4.701412201E0,7.847849846E0,3.198512554E0
5.174038170E-1,-4.699018002E0,7.847849846E0,3.145842552E0
5.198424110E-1,-4.687047958E0,7.888549805E0,3.169783354E0
5.222810570E-1,-4.658318043E0,7.878973007E0,3.150630713E0
5.247204320E-1,-4.694229603E0,7.845456123E0,3.148236513E0
5.271598590E-1,-4.706200123E0,7.843061447E0,3.150630713E0
5.295984530E-1,-4.727747440E0,7.811938286E0,3.198512554E0
5.320370470E-1,-4.722958565E0,7.833485603E0,3.198512554E0
5.344764220E-1,-4.708594322E0,7.819120407E0,3.241606474E0
5.369158490E-1,-4.672682762E0,7.821515083E0,3.272729635E0
5.393544420E-1,-4.665500641E0,7.855031967E0,3.277517796E0
5.417930880E-1,-4.634377480E0,7.847849846E0,3.311035156E0
5.442324630E-1,-4.624800682E0,7.811938286E0,3.337370157E0
5.466718900E-1,-4.591283798E0,7.828697205E0,3.356523037E0
5.491104840E-1,-4.584101200E0,7.816726685E0,3.373281717E0
5.515490780E-1,-4.598465919E0,7.835879326E0,3.344552755E0
5.539884530E-1,-4.605648041E0,7.850243568E0,3.351734877E0
5.564278800E-1,-4.622406960E0,7.862214088E0,3.363705397E0
5.588664740E-1,-4.622406960E0,7.831090927E0,3.356523037E0
5.613050670E-1,-4.643953800E0,7.890943527E0,3.330188036E0
5.637444950E-1,-4.682259083E0,7.965160370E0,3.354128838E0
5.661838700E-1,-4.641559601E0,7.957978249E0,3.291882515E0
5.686224630E-1,-4.684653282E0,8.025012970E0,3.239212275E0
5.710611090E-1,-4.734929085E0,8.099229813E0,3.265547276E0
5.735004840E-1,-4.699018002E0,8.108806610E0,3.251182795E0
5.759399110E-1,-4.727747440E0,8.099229813E0,3.263153076E0
5.783785050E-1,-4.763659000E0,8.075288773E0,3.222453356E0
5.808170990E-1,-4.751688480E0,8.104018211E0,3.188936234E0
5.832564740E-1,-4.775629044E0,8.127959251E0,3.145842552E0
5.856959010E-1,-4.778023243E0,8.149506569E0,3.148236513E0
5.881344950E-1,-4.758870125E0,8.185418129E0,3.117113113E0
5.905731400E-1,-4.749294281E0,8.183023453E0,3.076413393E0
5.930125150E-1,-4.766052723E0,8.238087654E0,3.117113113E0
5.954519420E-1,-4.775629044E0,8.235693932E0,3.093172073E0
5.978905360E-1,-4.782811165E0,8.257240295E0,3.069231272E0
6.003291300E-1,-4.789993763E0,8.266817093E0,3.117113113E0
6.027685050E-1,-4.749294281E0,8.269210815E0,3.145842552E0
6.052079320E-1,-4.763659000E0,8.273999214E0,3.193724394E0
6.076465260E-1,-4.742111683E0,8.319486618E0,3.239212275E0
6.100851720E-1,-4.703806400E0,8.333851814E0,3.301458597E0
6.125245470E-1,-4.699018002E0,8.307517052E0,3.296670675E0
6.149639740E-1,-4.706200123E0,8.307517052E0,3.342158556E0
6.174025670E-1,-4.718170643E0,8.307517052E0,3.337370157E0
6.198411610E-1,-4.715776920E0,8.283576012E0,3.356523037E0
6.222805360E-1,-4.706200123E0,8.302728653E0,3.356523037E0
6.247199630E-1,-4.710988045E0,8.266817093E0,3.366099358E0
6.271585570E-1,-4.710988045E0,8.223723412E0,3.354128838E0
6.295971510E-1,-4.684653282E0,8.166264534E0,3.354128838E0
6.320365780E-1,-4.629589081E0,8.183023453E0,3.363705397E0
6.344759530E-1,-4.610436440E0,8.149506569E0,3.323005676E0
6.369145470E-1,-4.588889122E0,8.166264534E0,3.289488077E0
6.393531920E-1,-4.552977562E0,8.168659210E0,3.308641195E0
6.417925670E-1,-4.521854877E0,8.159082413E0,3.267941475E0
6.442319950E-1,-4.490731239E0,8.156688690E0,3.260759115E0
6.466705880E-1,-4.493125916E0,8.113595009E0,3.260759115E0
6.491091820E-1,-4.459608078E0,8.115988731E0,3.260759115E0
6.515485570E-1,-4.481155396E0,8.127959251E0,3.289488077E0
6.539879840E-1,-4.457214355E0,8.135141373E0,3.277517796E0
6.564265780E-1,-4.454819679E0,8.125565529E0,3.313429117E0
6.588652240E-1,-4.478760719E0,8.156688690E0,3.299064636E0
6.613045990E-1,-4.493125916E0,8.194993973E0,3.291882515E0
6.637440260E-1,-4.507490158E0,8.218935013E0,3.265547276E0
6.661826200E-1,-4.519460678E0,8.228510857E0,3.296670675E0
6.686212130E-1,-4.529036999E0,8.218935013E0,3.267941475E0
6.710605880E-1,-4.550583839E0,8.269210815E0,3.260759115E0
6.735000150E-1,-4.545795918E0,8.271605492E0,3.294276476E0
6.759386090E-1,-4.543401718E0,8.273999214E0,3.260759115E0
6.783772030E-1,-4.514672279E0,8.257240295E0,3.275123596E0
6.808166300E-1,-4.488337040E0,8.271605492E0,3.323005676E0
6.832560050E-1,-4.462002277E0,8.259634972E0,3.296670675E0
6.856945990E-1,-4.435667038E0,8.254846573E0,3.318217516E0
6.881332450E-1,-4.440455437E0,8.221329689E0,3.342158556E0
6.905726200E-1,-4.469184875E0,8.178235054E0,3.303853035E0
6.930120470E-1,-4.517066479E0,8.151900291E0,3.270335436E0
6.954506400E-1,-4.574524879E0,8.142323494E0,3.234423876E0
6.978892340E-1,-4.610436440E0,8.125565529E0,3.210482836E0
7.003286090E-1,-4.636771202E0,8.161477089E0,3.167389154E0
7.027680360E-1,-4.655924320E0,8.149506569E0,3.157812834E0
7.052066300E-1,-4.663106918E0,8.142323494E0,3.119507074E0
7.076452760E-1,-4.636771202E0,8.149506569E0,3.131477594E0
7.100846510E-1,-4.586495399E0,8.137536049E0,3.105142593E0
7.125240780E-1,-4.557766438E0,8.120777130E0,3.121901512E0
7.149626720E-1,-4.512278080E0,8.087259293E0,3.131477594E0
7.174012650E-1,-4.500307560E0,8.070500374E0,3.131477594E0
7.198406400E-1,-4.483549118E0,8.056136131E0,3.143448114E0
7.222800670E-1,-4.490731239E0,8.036983490E0,3.188936234E0
7.247186610E-1,-4.495519638E0,8.027407646E0,3.222453356E0
7.271573070E-1,-4.490731239E0,8.005860329E0,3.244000435E0
7.295966820E-1,-4.488337040E0,8.003466606E0,3.267941475E0
7.320360570E-1,-4.497913837E0,7.984313011E0,3.267941475E0
7.344746510E-1,-4.502701759E0,8.003466606E0,3.270335436E0
7.369132970E-1,-4.495519638E0,8.010648727E0,3.260759115E0
7.393526720E-1,-4.478760719E0,8.017830849E0,3.258364916E0
7.417920990E-1,-4.483549118E0,8.015437126E0,3.270335436E0
7.442306920E-1,-4.509884357E0,8.039378166E0,3.327793837E0
7.466692860E-1,-4.505095959E0,8.027407646E0,3.349340677E0
7.491086610E-1,-4.488337040E0,8.025012970E0,3.358917236E0
7.515480880E-1,-4.519460678E0,8.025012970E0,3.413981438E0
7.539866820E-1,-4.514672279E0,8.063318253E0,3.466651678E0
7.564253280E-1,-4.541007042E0,8.072895050E0,3.483410120E0
7.588647030E-1,-4.512278080E0,8.070500374E0,3.483410120E0
7.613041300E-1,-4.502701759E0,8.075288773E0,3.473834038E0
7.637427240E-1,-4.526642799E0,8.077683449E0,3.464257479E0
7.661813170E-1,-4.495519638E0,8.099229813E0,3.473834038E0
7.686206920E-1,-4.493125916E0,8.084865570E0,3.442710638E0
7.710601200E-1,-4.514672279E0,8.058529854E0,3.437922478E0
7.734987130E-1,-4.550583839E0,8.048954010E0,3.425951958E0
7.759373070E-1,-4.550583839E0,8.008254051E0,3.385252237E0
7.783767340E-1,-4.536219120E0,8.048954010E0,3.361311197E0
7.808161090E-1,-4.557766438E0,8.075288773E0,3.334976196E0
7.832547030E-1,-4.560160160E0,8.135141373E0,3.351734877E0
7.856933490E-1,-4.507490158E0,8.135141373E0,3.327793837E0
7.881327240E-1,-4.509884357E0,8.151900291E0,3.330188036E0
7.905721510E-1,-4.476366997E0,8.139929771E0,3.339764357E0
7.930107450E-1,-4.473972797E0,8.149506569E0,3.354128838E0
7.954493380E-1,-4.466790199E0,8.125565529E0,3.354128838E0
7.978887130E-1,-4.428484917E0,8.104018211E0,3.378069878E0
8.003281400E-1,-4.440455437E0,8.044165611E0,3.346946716E0
8.027667340E-1,-4.440455437E0,7.986707687E0,3.373281717E0
8.052053800E-1,-4.421302795E0,7.924460411E0,3.382858276E0
8.076447550E-1,-4.380602837E0,7.895731926E0,3.406799078E0
8.100841820E-1,-4.373420715E0,7.907702446E0,3.464257479E0
8.125227760E-1,-4.337509155E0,7.900520325E0,3.519321680E0
8.149613700E-1,-4.313568115E0,7.907702446E0,3.531292200E0
8.174007450E-1,-4.320750237E0,7.912490845E0,3.526504278E0
8.198401720E-1,-4.327932835E0,7.910096169E0,3.528898239E0
8.222787650E-1,-4.315962315E0,7.977130890E0,3.567203760E0
8.247173590E-1,-4.337509155E0,7.924460411E0,3.536080360E0
8.271567340E-1,-4.380602837E0,7.917278290E0,3.528898239E0
8.295961610E-1,-4.366238117E0,7.926855087E0,3.524109840E0
8.320347550E-1,-4.347085476E0,7.902914047E0,3.526504278E0
8.344734010E-1,-4.344691277E0,7.914884567E0,3.533686399E0
8.369127760E-1,-4.339903355E0,7.936430931E0,3.512139559E0
8.393522030E-1,-4.335114956E0,7.931643486E0,3.512139559E0
8.417907970E-1,-4.342297077E0,7.924460411E0,3.466651678E0
8.442293900E-1,-4.344691277E0,7.943614006E0,3.452286959E0
8.466687650E-1,-4.337509155E0,8.010648727E0,3.485804558E0
8.491081920E-1,-4.361450195E0,8.034588814E0,3.430740118E0
8.515467860E-1,-4.380602837E0,8.008254051E0,3.454681158E0
8.539854320E-1,-4.390179157E0,7.957978249E0,3.461863518E0
8.564248070E-1,-4.399755955E0,7.991496086E0,3.490592718E0
8.588641820E-1,-4.406937599E0,7.996283531E0,3.533686399E0
8.613027760E-1,-4.445243835E0,8.036983490E0,3.512139559E0
8.637414220E-1,-4.476366997E0,8.070500374E0,3.466651678E0
8.661807970E-1,-4.505095959E0,8.070500374E0,3.421163797E0
8.686202240E-1,-4.517066479E0,8.096836090E0,3.375675917E0
8.710588170E-1,-4.555372238E0,8.096836090E0,3.370887756E0
8.734974110E-1,-4.550583839E0,8.168659210E0,3.349340677E0
8.759367860E-1,-4.531431198E0,8.178235054E0,3.334976196E0
8.783762130E-1,-4.555372238E0,8.173447609E0,3.323005676E0
8.808148070E-1,-4.567342758E0,8.183023453E0,3.332582235E0
8.832534530E-1,-4.572130680E0,8.149506569E0,3.356523037E0
8.856928280E-1,-4.538613319E0,8.178235054E0,3.361311197E0
8.881322550E-1,-4.521854877E0,8.168659210E0,3.382858276E0
8.905708490E-1,-4.543401718E0,8.115988731E0,3.378069878E0
8.930094420E-1,-4.545795918E0,8.094441414E0,3.423557997E0
8.954488170E-1,-4.555372238E0,8.125565529E0,3.485804558E0
8.978882450E-1,-4.567342758E0,8.171052933E0,3.557627439E0
9.003268380E-1,-4.557766438E0,8.194993973E0,3.595932961E0
9.027654320E-1,-4.548189640E0,8.216540337E0,3.607903481E0
9.052048590E-1,-4.608042240E0,8.240481377E0,3.627056122E0
9.076442340E-1,-4.643953800E0,8.269210815E0,3.591144800E0
9.100828280E-1,-4.617618561E0,8.295546532E0,3.610297441E0
9.125214740E-1,-4.591283798E0,8.288363457E0,3.662967682E0
9.149608490E-1,-4.562554359E0,8.278787613E0,3.679726362E0
9.174002760E-1,-4.512278080E0,8.281181335E0,3.677332163E0
9.198388700E-1,-4.476366997E0,8.285969734E0,3.682120323E0
9.222774630E-1,-4.442849159E0,8.285969734E0,3.694090843E0
9.247168380E-1,-4.402149677E0,8.226117134E0,3.660573721E0
9.271562650E-1,-4.406937599E0,8.216540337E0,3.677332163E0
9.295948590E-1,-4.406937599E0,8.204569817E0,3.653391123E0
9.320335050E-1,-4.404543877E0,8.202176094E0,3.648603201E0
9.344728800E-1,-4.385391235E0,8.216540337E0,3.629450560E0
9.369122550E-1,-4.366238117E0,8.283576012E0,3.627056122E0
9.393508490E-1,-4.330326557E0,8.317092896E0,3.615085602E0
9.417894950E-1,-4.318356037E0,8.319486618E0,3.543262720E0
9.442288700E-1,-4.320750237E0,8.324275970E0,3.490592718E0
9.466682970E-1,-4.306385994E0,8.355399132E0,3.413981438E0
9.491068900E-1,-4.282444954E0,8.326669693E0,3.416375399E0
9.515454840E-1,-4.244139194E0,8.341033936E0,3.406799078E0
9.539848590E-1,-4.232168674E0,8.314699173E0,3.392434359E0
9.564242860E-1,-4.210621834E0,8.305122375E0,3.382858276E0
9.588628800E-1,-4.184286594E0,8.309910774E0,3.375675917E0
9.613015260E-1,-4.184286594E0,8.250058174E0,3.382858276E0
9.637409010E-1,-4.165133953E0,8.245269775E0,3.392434359E0
9.661803280E-1,-4.172316074E0,8.211752892E0,3.394828796E0
9.686189220E-1,-4.189074993E0,8.204569817E0,3.370887756E0
9.710575150E-1,-4.220198154E0,8.190205574E0,3.399616957E0
9.734968900E-1,-4.201045513E0,8.168659210E0,3.378069878E0
9.759363170E-1,-4.220198154E0,8.154294014E0,3.404404879E0
9.783749110E-1,-4.244139194E0,8.163870811E0,3.387646437E0
9.808135050E-1,-4.265686035E0,8.123170853E0,3.397222757E0
9.832529320E-1,-4.289627075E0,8.120777130E0,3.392434359E0
9.856923070E-1,-4.313568115E0,8.111200333E0,3.406799078E0
9.881309010E-1,-4.332720757E0,8.104018211E0,3.430740118E0
9.905695470E-1,-4.327932835E0,8.099229813E0,3.445104599E0
9.930089220E-1,-4.337509155E0,8.075288773E0,3.454681158E0
9.954483490E-1,-4.354267597E0,8.068106651E0,3.476227999E0
9.978869420E-1,-4.356661797E0,8.070500374E0,3.495380640E0
1.000325536E0,-4.344691277E0,8.025012970E0,3.504957199E0
1.002764911E0,-4.363844395E0,7.991496086E0,3.502563238E0
1.005204338E0,-4.371026039E0,7.989101410E0,3.519321680E0
1.007642932E0,-4.385391235E0,7.977130890E0,3.526504278E0
1.010081578E0,-4.387785435E0,7.941219330E0,3.540868759E0
1.012520953E0,-4.387785435E0,7.938825607E0,3.567203760E0
1.014960380E0,-4.402149677E0,7.969948769E0,3.595932961E0
1.017398974E0,-4.394967079E0,7.962766647E0,3.631844521E0
1.019837567E0,-4.387785435E0,7.948401451E0,3.650997162E0
1.022276942E0,-4.394967079E0,7.957978249E0,3.660573721E0
1.024716370E0,-4.390179157E0,7.953189850E0,3.665361643E0
1.027154963E0,-4.390179157E0,7.967555046E0,3.667755842E0
1.029593557E0,-4.375814915E0,7.955584526E0,3.646209002E0
1.032032984E0,-4.361450195E0,7.946007729E0,3.619874001E0
1.034472359E0,-4.361450195E0,7.934037209E0,3.622267962E0
1.036910953E0,-4.366238117E0,7.965160370E0,3.648603201E0
1.039349599E0,-4.385391235E0,7.962766647E0,3.641420603E0
1.041788974E0,-4.354267597E0,7.953189850E0,3.641420603E0
1.044228401E0,-4.361450195E0,7.955584526E0,3.631844521E0
1.046666995E0,-4.344691277E0,7.996283531E0,3.648603201E0
1.049105588E0,-4.349479675E0,7.996283531E0,3.665361643E0
1.051544963E0,-4.363844395E0,8.013042450E0,3.679726362E0
1.053984390E0,-4.356661797E0,8.025012970E0,3.689302683E0
1.056422984E0,-4.351873875E0,8.056136131E0,3.710849762E0
1.058861630E0,-4.347085476E0,8.039378166E0,3.715637922E0
1.061301005E0,-4.349479675E0,8.072895050E0,3.741972923E0
1.063740432E0,-4.349479675E0,8.060924530E0,3.761125803E0
1.066179026E0,-4.359055996E0,8.080077171E0,3.763520002E0
1.068617620E0,-4.327932835E0,8.082470894E0,3.797037125E0
1.071056995E0,-4.342297077E0,8.087259293E0,3.816190004E0
1.073496422E0,-4.347085476E0,8.123170853E0,3.828160524E0
1.075935015E0,-4.330326557E0,8.142323494E0,3.852101326E0
1.078373609E0,-4.335114956E0,8.130352974E0,3.832948685E0
1.080812984E0,-4.359055996E0,8.137536049E0,3.792248964E0
1.083252411E0,-4.366238117E0,8.154294014E0,3.763520002E0
1.085691005E0,-4.366238117E0,8.149506569E0,3.722820282E0
1.088129651E0,-4.373420715E0,8.171052933E0,3.706061363E0
1.090569026E0,-4.378208637E0,8.156688690E0,3.655785561E0
1.093008453E0,-4.366238117E0,8.159082413E0,3.665361643E0
1.095447047E0,-4.390179157E0,8.163870811E0,3.658179522E0
1.097885640E0,-4.390179157E0,8.151900291E0,3.646209002E0
1.100325015E0,-4.356661797E0,8.147111893E0,3.655785561E0
1.102764442E0,-4.347085476E0,8.168659210E0,3.660573721E0
1.105203036E0,-4.327932835E0,8.144718170E0,3.648603201E0
1.107641630E0,-4.315962315E0,8.149506569E0,3.650997162E0
1.110081057E0,-4.323144436E0,8.132747650E0,3.617480040E0
1.112520432E0,-4.330326557E0,8.137536049E0,3.564809799E0
1.114959026E0,-4.342297077E0,8.125565529E0,3.581568480E0
1.117397672E0,-4.349479675E0,8.118382454E0,3.562415361E0
1.119837047E0,-4.354267597E0,8.108806610E0,3.564809799E0
1.122276474E0,-4.342297077E0,8.144718170E0,3.548050880E0
1.124715067E0,-4.332720757E0,8.144718170E0,3.548050880E0
1.127153661E0,-4.342297077E0,8.139929771E0,3.540868759E0
1.129593036E0,-4.325538635E0,8.163870811E0,3.545656919E0
1.132032463E0,-4.292021275E0,8.144718170E0,3.550444841E0
1.134471057E0,-4.296809196E0,8.135141373E0,3.571991920E0
1.136909703E0,-4.301597595E0,8.135141373E0,3.603115082E0
1.139349078E0,-4.284838676E0,8.120777130E0,3.627056122E0
1.141788453E0,-4.258503914E0,8.094441414E0,3.603115082E0
1.144227047E0,-4.234562874E0,8.089653969E0,3.579174280E0
1.146665692E0,-4.220198154E0,8.060924530E0,3.548050880E0
1.149105067E0,-4.270474434E0,8.056136131E0,3.538474798E0
1.151544495E0,-4.253715992E0,8.025012970E0,3.533686399E0
1.153983088E0,-4.234562874E0,8.022618294E0,3.548050880E0
1.156421682E0,-4.189074993E0,8.017830849E0,3.531292200E0
1.158861057E0,-4.189074993E0,8.034588814E0,3.495380640E0
1.161300484E0,-4.179498672E0,7.981919289E0,3.478622198E0
1.163739078E0,-4.174710274E0,7.998678207E0,3.488198519E0
1.166177724E0,-4.167528152E0,8.005860329E0,3.471439600E0
1.168617099E0,-4.169922352E0,8.025012970E0,3.437922478E0
1.171056474E0,-4.191469193E0,8.027407646E0,3.457075119E0
1.173495067E0,-4.198651314E0,8.060924530E0,3.464257479E0
1.175933713E0,-4.205833912E0,8.065712929E0,3.490592718E0
1.178373088E0,-4.196257114E0,8.108806610E0,3.490592718E0
1.180812515E0,-4.215410233E0,8.123170853E0,3.519321680E0
1.183251109E0,-4.222592354E0,8.099229813E0,3.550444841E0
1.185689703E0,-4.239351273E0,8.125565529E0,3.552839279E0
1.188129078E0,-4.253715992E0,8.101624489E0,3.579174280E0
1.190568505E0,-4.246533394E0,8.111200333E0,3.665361643E0
1.193007099E0,-4.241745472E0,8.094441414E0,3.658179522E0
1.195445745E0,-4.248927116E0,8.094441414E0,3.706061363E0
1.197885120E0,-4.265686035E0,8.139929771E0,3.730002403E0
1.200324547E0,-4.270474434E0,8.113595009E0,3.686908722E0
1.202763140E0,-4.244139194E0,8.125565529E0,3.703667402E0
1.205201734E0,-4.272868156E0,8.127959251E0,3.706061363E0
1.207641109E0,-4.280050755E0,8.096836090E0,3.686908722E0
1.210080536E0,-4.289627075E0,8.106411934E0,3.667755842E0
1.212519130E0,-4.282444954E0,8.127959251E0,3.648603201E0
1.214957724E0,-4.275262833E0,8.115988731E0,3.650997162E0
1.217397099E0,-4.253715992E0,8.127959251E0,3.639026642E0
1.219836526E0,-4.272868156E0,8.123170853E0,3.641420603E0
1.222275120E0,-4.241745472E0,8.132747650E0,3.653391123E0
1.224713765E0,-4.253715992E0,8.127959251E0,3.665361643E0
1.227153140E0,-4.241745472E0,8.099229813E0,3.646209002E0
1.229592567E0,-4.229774952E0,8.106411934E0,3.619874001E0
1.232031161E0,-4.232168674E0,8.092047691E0,3.634238482E0
1.234469755E0,-4.253715992E0,8.099229813E0,3.662967682E0
1.236909130E0,-4.256109715E0,8.092047691E0,3.646209002E0
1.239348557E0,-4.277656555E0,8.082470894E0,3.658179522E0
1.241787151E0,-4.282444954E0,8.087259293E0,3.639026642E0
1.244225745E0,-4.287233353E0,8.104018211E0,3.627056122E0
1.246665172E0,-4.287233353E0,8.113595009E0,3.600721121E0
1.249104547E0,-4.272868156E0,8.115988731E0,3.595932961E0
1.251543140E0,-4.280050755E0,8.149506569E0,3.615085602E0
1.253981786E0,-4.294415474E0,8.144718170E0,3.639026642E0
1.256421161E0,-4.265686035E0,8.120777130E0,3.631844521E0
1.258860588E0,-4.280050755E0,8.104018211E0,3.600721121E0
1.261299182E0,-4.260897636E0,8.125565529E0,3.639026642E0
1.263737776E0,-4.248927116E0,8.161477089E0,3.636632681E0
1.266177151E0,-4.272868156E0,8.161477089E0,3.641420603E0
1.268616578E0,-4.280050755E0,8.166264534E0,3.629450560E0
1.271055172E0,-4.292021275E0,8.149506569E0,3.646209002E0
1.273493817E0,-4.280050755E0,8.137536049E0,3.624662161E0
1.275933192E0,-4.284838676E0,8.092047691E0,3.612691641E0
1.278372567E0,-4.282444954E0,8.104018211E0,3.619874001E0
1.280811161E0,-4.241745472E0,8.108806610E0,3.603115082E0
1.283249807E0,-4.272868156E0,8.127959251E0,3.579174280E0
1.285689182E0,-4.256109715E0,8.111200333E0,3.588750601E0
1.288128609E0,-4.294415474E0,8.104018211E0,3.583962440E0
1.290567203E0,-4.308779716E0,8.099229813E0,3.631844521E0
1.293005797E0,-4.308779716E0,8.104018211E0,3.670150042E0
1.295445172E0,-4.301597595E0,8.127959251E0,3.710849762E0
1.297884599E0,-4.287233353E0,8.132747650E0,3.708455801E0
1.300323192E0,-4.263292313E0,8.115988731E0,3.744366884E0
1.302761838E0,-4.280050755E0,8.113595009E0,3.765913963E0
1.305201213E0,-4.265686035E0,8.101624489E0,3.749155283E0
1.307640588E0,-4.268080235E0,8.094441414E0,3.703667402E0
1.310079182E0,-4.258503914E0,8.094441414E0,3.672544241E0
1.312517828E0,-4.270474434E0,8.125565529E0,3.670150042E0
1.314957203E0,-4.282444954E0,8.127959251E0,3.639026642E0
1.317396630E0,-4.301597595E0,8.125565529E0,3.627056122E0
1.319835224E0,-4.306385994E0,8.142323494E0,3.615085602E0
1.322273817E0,-4.320750237E0,8.120777130E0,3.593539000E0
1.324713192E0,-4.308779716E0,8.137536049E0,3.586356401E0
1.327152620E0,-4.301597595E0,8.144718170E0,3.603115082E0
1.329591213E0,-4.268080235E0,8.144718170E0,3.622267962E0
1.332029859E0,-4.241745472E0,8.108806610E0,3.622267962E0
1.334469234E0,-4.203439713E0,8.127959251E0,3.653391123E0
1.336908609E0,-4.205833912E0,8.127959251E0,3.691696882E0
1.339347203E0,-4.196257114E0,8.108806610E0,3.679726362E0
1.341785849E0,-4.198651314E0,8.113595009E0,3.689302683E0
1.344225224E0,-4.241745472E0,8.120777130E0,3.662967682E0
1.346664651E0,-4.253715992E0,8.089653969E0,3.612691641E0
1.349103245E0,-4.301597595E0,8.111200333E0,3.571991920E0
1.351541838E0,-4.299203873E0,8.101624489E0,3.519321680E0
1.353981213E0,-4.318356037E0,8.099229813E0,3.509745359E0
1.356420640E0,-4.330326557E0,8.113595009E0,3.485804558E0
1.358859234E0,-4.323144436E0,8.084865570E0,3.464257479E0
1.361297880E0,-4.327932835E0,8.094441414E0,3.452286959E0
1.363737255E0,-4.292021275E0,8.089653969E0,3.476227999E0
1.366176682E0,-4.265686035E0,8.072895050E0,3.478622198E0
1.368615276E0,-4.248927116E0,8.118382454E0,3.497774839E0
1.371053870E0,-4.244139194E0,8.099229813E0,3.540868759E0
1.373493245E0,-4.268080235E0,8.096836090E0,3.550444841E0
1.375932672E0,-4.263292313E0,8.094441414E0,3.569597960E0
1.378371265E0,-4.303991795E0,8.051347733E0,3.574385881E0
1.380809859E0,-4.270474434E0,8.039378166E0,3.612691641E0
1.383249234E0,-4.275262833E0,8.056136131E0,3.627056122E0
1.385688661E0,-4.284838676E0,8.075288773E0,3.624662161E0
1.388127255E0,-4.277656555E0,8.065712929E0,3.636632681E0
1.390565901E0,-4.277656555E0,8.092047691E0,3.639026642E0
1.393005276E0,-4.299203873E0,8.096836090E0,3.624662161E0
1.395444703E0,-4.272868156E0,8.092047691E0,3.581568480E0
1.397883297E0,-4.241745472E0,8.084865570E0,3.560021400E0
1.400321890E0,-4.265686035E0,8.089653969E0,3.555233240E0
1.402761265E0,-4.299203873E0,8.113595009E0,3.536080360E0
1.405200692E0,-4.303991795E0,8.115988731E0,3.543262720E0
1.407639286E0,-4.303991795E0,8.130352974E0,3.564809799E0
1.410077880E0,-4.294415474E0,8.132747650E0,3.598326921E0
1.412517307E0,-4.287233353E0,8.130352974E0,3.629450560E0
1.414956682E0,-4.270474434E0,8.115988731E0,3.677332163E0
1.417395276E0,-4.258503914E0,8.139929771E0,3.667755842E0
1.419833922E0,-4.244139194E0,8.101624489E0,3.670150042E0
1.422273297E0,-4.246533394E0,8.125565529E0,3.691696882E0
1.424712724E0,-4.244139194E0,8.130352974E0,3.665361643E0
1.427151317E0,-4.253715992E0,8.147111893E0,3.672544241E0
1.429589911E0,-4.241745472E0,8.127959251E0,3.691696882E0
1.432029286E0,-4.205833912E0,8.163870811E0,3.667755842E0
1.434468713E0,-4.241745472E0,8.180629730E0,3.674938202E0
1.436907307E0,-4.232168674E0,8.178235054E0,3.646209002E0
1.439345953E0,-4.253715992E0,8.151900291E0,3.670150042E0
1.441785328E0,-4.227380753E0,8.149506569E0,3.679726362E0
1.444224703E0,-4.224986076E0,8.132747650E0,3.667755842E0
1.446663297E0,-4.244139194E0,8.087259293E0,3.684514761E0
1.449101942E0,-4.263292313E0,8.087259293E0,3.643815041E0
1.451541317E0,-4.239351273E0,8.044165611E0,3.646209002E0
1.453980745E0,-4.246533394E0,8.036983490E0,3.641420603E0
1.456419338E0,-4.227380753E0,8.036983490E0,3.627056122E0
1.458857932E0,-4.210621834E0,8.032195091E0,3.631844521E0
1.461297307E0,-4.198651314E0,8.068106651E0,3.624662161E0
1.463736734E0,-4.203439713E0,8.077683449E0,3.593539000E0
1.466175328E0,-4.234562874E0,8.094441414E0,3.579174280E0
1.468613974E0,-4.268080235E0,8.068106651E0,3.564809799E0
1.471053349E0,-4.287233353E0,8.065712929E0,3.562415361E0
1.473492724E0,-4.313568115E0,8.046559334E0,3.610297441E0
1.475931317E0,-4.308779716E0,8.032195091E0,3.665361643E0
1.478369963E0,-4.313568115E0,8.080077171E0,3.696485281E0
1.480809338E0,-4.299203873E0,8.092047691E0,3.696485281E0
1.483248765E0,-4.277656555E0,8.099229813E0,3.718031883E0
1.485687359E0,-4.268080235E0,8.080077171E0,3.720426083E0
1.488125953E0,-4.296809196E0,8.072895050E0,3.694090843E0
1.490565328E0,-4.260897636E0,8.099229813E0,3.689302683E0
1.493004755E0,-4.303991795E0,8.099229813E0,3.674938202E0
1.495443349E0,-4.311174393E0,8.115988731E0,3.691696882E0
1.497881995E0,-4.282444954E0,8.163870811E0,3.682120323E0
1.500321370E0,-4.277656555E0,8.199782372E0,3.701273203E0
1.502760797E0,-4.280050755E0,8.192599297E0,3.667755842E0
1.505199390E0,-4.289627075E0,8.166264534E0,3.660573721E0
1.507637984E0,-4.311174393E0,8.111200333E0,3.653391123E0
1.510077359E0,-4.315962315E0,8.099229813E0,3.636632681E0
1.512516786E0,-4.313568115E0,8.072895050E0,3.648603201E0
1.514955380E0,-4.315962315E0,8.060924530E0,3.627056122E0
1.517393974E0,-4.272868156E0,8.070500374E0,3.650997162E0
1.519833349E0,-4.251321793E0,8.048954010E0,3.646209002E0
1.522272776E0,-4.239351273E0,8.032195091E0,3.607903481E0
1.524711370E0,-4.244139194E0,8.001071930E0,3.603115082E0
1.527150015E0,-4.246533394E0,7.960371971E0,3.555233240E0
1.529589390E0,-4.220198154E0,7.962766647E0,3.564809799E0
1.532028817E0,-4.179498672E0,7.974737167E0,3.560021400E0
1.534467411E0,-4.167528152E0,7.991496086E0,3.567203760E0
1.536906005E0,-4.165133953E0,8.005860329E0,3.576780081E0
1.539345380E0,-4.150769711E0,7.991496086E0,3.610297441E0
1.541784807E0,-4.145981312E0,7.996283531E0,3.639026642E0
1.544223401E0,-4.198651314E0,7.977130890E0,3.643815041E0
1.546661995E0,-4.217804432E0,7.941219330E0,3.674938202E0
1.549101370E0,-4.287233353E0,7.914884567E0,3.720426083E0
1.551540797E0,-4.311174393E0,7.893337250E0,3.758731604E0
1.553979390E0,-4.337509155E0,7.838273048E0,3.773096085E0
1.556418036E0,-4.359055996E0,7.809544563E0,3.718031883E0
1.558857411E0,-4.351873875E0,7.816726685E0,3.665361643E0
1.561296838E0,-4.311174393E0,7.797574043E0,3.639026642E0
1.563735432E0,-4.248927116E0,7.847849846E0,3.629450560E0
1.566174026E0,-4.205833912E0,7.857425690E0,3.622267962E0
1.568613401E0,-4.169922352E0,7.910096169E0,3.548050880E0
1.571052828E0,-4.105281353E0,7.895731926E0,3.473834038E0
1.573491422E0,-4.074158192E0,7.924460411E0,3.394828796E0
1.575930015E0,-3.987971067E0,7.955584526E0,3.366099358E0
1.578369390E0,-3.949665308E0,8.003466606E0,3.332582235E0
1.580808817E0,-3.944877148E0,8.010648727E0,3.308641195E0
1.583247411E0,-3.978394508E0,8.039378166E0,3.255970955E0
1.585686057E0,-3.985576868E0,8.027407646E0,3.205694914E0
1.588125432E0,-3.995153189E0,8.013042450E0,3.114719152E0
1.590564859E0,-3.980788469E0,7.979525566E0,3.105142593E0
1.593003453E0,-3.973606348E0,7.946007729E0,3.057260752E0
1.595442047E0,-4.050217152E0,7.991496086E0,2.978255510E0
1.597881422E0,-4.117251873E0,7.934037209E0,2.918402910E0
1.600320849E0,-4.186680794E0,7.874184608E0,2.956708670E0
1.602759442E0,-4.469184875E0,7.720962524E0,2.990226030E0
1.605198088E0,-4.380602837E0,7.572528839E0,2.961496592E0
1.607637463E0,-4.268080235E0,7.539011002E0,2.987831831E0
1.610076838E0,-4.232168674E0,7.474370956E0,2.971073151E0
1.612515432E0,-4.076552391E0,7.488735199E0,2.987831831E0
1.614954078E0,-3.995153189E0,7.503099442E0,2.971073151E0
1.617393453E0,-3.911359787E0,7.541404724E0,2.904038429E0
1.619832880E0,-3.968818188E0,7.505493164E0,2.810668468E0
1.622271474E0,-4.110069752E0,7.457612038E0,2.877703190E0
1.624710067E0,-4.445243835E0,7.304389954E0,2.939949989E0
1.627149442E0,-4.780417442E0,7.064979553E0,2.995014191E0
1.629588870E0,-5.920008183E0,6.291685104E0,2.966284990E0
1.632027463E0,-5.287966251E0,6.291685104E0,3.074019432E0
1.634466109E0,-5.596805096E0,6.124098778E0,3.121901512E0
1.636905484E0,-5.599199295E0,6.004393578E0,3.088383913E0
1.639344859E0,-5.510617256E0,5.932571411E0,2.932767630E0
1.641783453E0,-5.405277252E0,5.855959892E0,2.832215548E0
1.644222099E0,-5.304724693E0,5.784136772E0,2.712510347E0
1.646661474E0,-5.292754173E0,5.681190491E0,2.576046944E0
1.649100901E0,-5.223325729E0,5.717102051E0,2.530558825E0
1.651539495E0,-5.199384689E0,5.635702133E0,2.542529345E0
1.653978088E0,-5.278389931E0,5.602185249E0,2.523376703E0
1.656417463E0,-5.319089890E0,5.482480049E0,2.619140625E0
1.658856890E0,-5.498646736E0,5.367563248E0,2.674204826E0
1.661295484E0,-5.489070892E0,5.286164284E0,2.683781147E0
1.663734130E0,-5.608775616E0,5.168853760E0,2.647869825E0
1.666173505E0,-5.702145100E0,5.015630722E0,2.604775906E0
1.668612932E0,-5.931978703E0,4.814526558E0,2.611958504E0
1.671051526E0,-6.224058628E0,4.634969711E0,2.501829624E0
1.673490120E0,-6.501774311E0,4.443441391E0,2.465918541E0
1.675929495E0,-6.724425793E0,4.259096146E0,2.494647503E0
1.678368922E0,-6.836948395E0,4.089115143E0,2.568864584E0
1.680807515E0,-6.693302155E0,4.105873108E0,2.813062668E0
1.683246109E0,-6.149841785E0,4.227972031E0,3.052472353E0
1.685685484E0,-5.501041412E0,4.321342468E0,3.282305956E0
1.688124911E0,-4.993492126E0,4.543993950E0,3.643815041E0
1.690563505E0,-4.806752205E0,4.548782349E0,3.713243723E0
1.693002151E0,-4.885757923E0,4.338101387E0,3.646209002E0
1.695441526E0,-4.557766438E0,4.441047668E0,3.897589445E0
1.697880953E0,-4.227380753E0,4.510476112E0,4.060388565E0
1.700319547E0,-3.267347336E0,3.902374983E0,3.777884483E0
1.702758140E0,-1.890740395E0,2.588015079E0,3.227241755E0
1.705197515E0,-1.938622355E0,2.324664116E0,3.050078392E0
1.707636942E0,-1.747094512E0,2.154683113E0,3.145842552E0
1.710075536E0,-1.445438027E0,1.987096071E0,3.313429117E0
1.712514130E0,-1.318550825E0,1.774021387E0,3.234423876E0
1.714953505E0,-1.579507589E0,1.845844269E0,3.114719152E0
1.717392932E0,-1.613024950E0,1.666286826E0,2.951920509E0
1.719831526E0,-1.720759392E0,1.548975945E0,2.913614750E0
1.722270172E0,-1.610630870E0,1.319142580E0,2.722086906E0
1.724709547E0,-1.560354710E0,1.187467098E0,2.702934265E0
1.727148974E0,-1.665695071E0,1.130008698E0,2.621534586E0
1.729587567E0,-1.830888033E0,1.103673577E0,2.611958504E0
1.732026161E0,-1.613024950E0,9.719982147E-1,2.492253542E0
1.734465536E0,-1.572325230E0,8.522933125E-1,2.473100662E0
1.736904963E0,-1.376009107E0,8.020172715E-1,2.420430422E0
1.739343557E0,-1.366432786E0,8.546874523E-1,2.492253542E0
1.741782151E0,-1.246727824E0,7.086473703E-1,2.384518862E0
1.744221578E0,-7.631199360E-1,5.195135474E-1,2.396489382E0
1.746660953E0,-4.925867617E-1,4.237496257E-1,2.351001740E0
1.749099547E0,-4.040051103E-1,3.878381550E-1,2.286360979E0
1.751538192E0,-3.154234290E-1,3.255915940E-1,2.137926579E0
1.753977567E0,-1.693834215E-1,2.130689323E-1,1.896122932E0
1.756416995E0,-7.840767503E-2,6.463482976E-2,1.630377769E0
1.758855588E0,-7.122537494E-2,3.829973936E-2,1.422091484E0
1.761294182E0,-8.319586515E-2,4.787612706E-2,1.161134720E0
1.763733557E0,-4.303402007E-1,1.292755008E-1,1.039035559E0
1.766172984E0,-7.439671159E-1,2.537686229E-1,1.031853199E0
1.768611578E0,-5.117394924E-1,1.771574616E-1,1.115646839E0
1.771050224E0,-8.558996022E-2,1.005463153E-1,1.132405281E0
1.773489599E0,4.602645636E-1,2.872334421E-2,1.187469721E0
1.775929026E0,5.847576857E-1,6.702892482E-2,1.242533922E0
1.778367620E0,6.230632663E-1,1.220932007E-1,1.247322083E0
1.780806213E0,7.020685077E-1,2.226453424E-1,1.280839443E0
1.783245588E0,6.996744275E-1,2.848919034E-1,1.343086243E0
1.785685015E0,7.691032887E-1,3.519266844E-1,1.383785725E0
1.788123609E0,8.337439299E-1,4.381142259E-1,1.424485445E0
1.790562203E0,8.528967500E-1,5.075431466E-1,1.474761486E0
1.793001578E0,8.816259503E-1,6.535831094E-1,1.546584606E0
1.795441005E0,9.055669308E-1,1.874573469E0,1.551372528E0
1.797879599E0,1.286228657E0,3.239209652E0,1.493914366E0
1.800318245E0,8.864141107E-1,7.172714233E0,8.355371356E-1
1.802757620E0,2.105010509E0,2.218850136E1,-1.460433453E-1
1.805196995E0,7.111071110E0,3.849710083E1,2.111591578E0
1.807635588E0,9.478835106E0,4.311053085E1,4.093905449E0
1.810074234E0,1.007257080E1,4.227020264E1,4.903110981E0
1.812513609E0,1.004384136E1,3.846358109E1,2.908826590E0
1.814953036E0,1.238048172E1,3.828163528E1,-1.252116919E0
1.817391630E0,1.287606049E1,3.910280609E1,-1.824306726E0
1.819830224E0,1.288803101E1,4.027591705E1,-1.491526842E0
1.822269599E0,1.265101433E1,4.063263702E1,-7.852677107E-1
1.824709026E0,1.227753544E1,4.045786667E1,2.825003564E-1
1.827147620E0,1.177238083E1,4.068770218E1,-3.256007433E-1
1.829586265E0,1.038380337E1,4.020409393E1,3.040472269E-1
1.832025640E0,8.133350372E0,3.836302948E1,9.791830182E-1
1.834465067E0,6.031332970E0,3.598569107E1,1.604042768E0
1.836903661E0,3.934101820E0,3.345752335E1,2.097227097E0
1.839342255E0,1.913482547E0,3.073303986E1,2.437189102E0
1.841781630E0,-1.526247412E-1,2.775238800E1,2.662234545E0
1.844221057E0,-1.794976473E0,2.463766479E1,2.789121628E0
1.846659651E0,-2.944143772E0,2.166180038E1,2.968679190E0
1.849098245E0,-3.573791742E0,1.893971062E1,3.121901512E0
1.851537620E0,-3.815595865E0,1.656715775E1,3.332582235E0
1.853977047E0,-3.715043783E0,1.450823307E1,3.543262720E0
1.856415640E0,-3.425357819E0,1.259295368E1,3.758731604E0
1.858854286E0,-3.073425293E0,1.080216789E1,3.880830765E0
1.861293661E0,-2.668822527E0,9.140663147E0,3.876042366E0
1.863733088E0,-2.242672920E0,7.790391922E0,3.746761084E0
1.866171682E0,-1.833281994E0,6.701076508E0,3.490592718E0
1.868610276E0,-1.462196708E0,5.815259933E0,3.153024673E0
1.871049651E0,-1.167722583E0,5.120971680E0,2.784333467E0
1.873489078E0,-8.062136769E-1,4.682851791E0,2.415642262E0
1.875927672E0,-4.830103517E-1,4.402742386E0,2.046951056E0
1.878366265E0,-2.052949071E-1,4.230366707E0,1.673471689E0
1.880805640E0,1.394553035E-1,4.283037186E0,1.266474962E0
1.883245067E0,4.698409438E-1,4.438652992E0,9.097542167E-1
1.885683661E0,8.528967500E-1,4.704398155E0,6.296446323E-1
1.888122307E0,1.195252895E0,5.037178040E0,3.662937880E-1
1.890561682E0,1.477756500E0,5.355592728E0,1.532189995E-1
1.893001109E0,1.645343423E0,5.714708328E0,-9.579716250E-3
1.895439703E0,1.709984064E0,6.025940895E0,-1.268905550E-1
1.897878297E0,1.726742744E0,6.329991341E0,-1.963194162E-1
1.900317672E0,1.709984064E0,6.665164948E0,-2.202604115E-1
1.902757099E0,1.700407743E0,6.983579636E0,-1.987135112E-1
1.905195692E0,1.671678543E0,7.299600601E0,-1.580138355E-1
1.907634286E0,1.669284344E0,7.641957283E0,-7.900857925E-2
1.910073713E0,1.563944101E0,7.957978249E0,2.872586995E-2
1.912513088E0,1.453815460E0,8.238087654E0,6.463734806E-2
1.914951682E0,1.271863937E0,8.522985458E0,1.556130946E-1
1.917390328E0,1.101883054E0,8.795912743E0,2.154655755E-1
1.919829703E0,9.007787704E-1,9.025745392E0,2.705298364E-1
1.922269130E0,7.236154079E-1,9.238821030E0,2.968649268E-1
1.924707724E0,5.416639447E-1,9.435136795E0,2.944708169E-1
1.927146317E0,4.099884629E-1,9.621876717E0,2.896826267E-1
1.929585692E0,2.639484704E-1,9.765522957E0,2.537711561E-1
1.932025120E0,1.873372942E-1,9.921138763E0,2.178596854E-1
1.934463713E0,1.226966232E-1,1.005042076E1,1.747658849E-1
1.936902307E0,7.481466234E-2,1.016773129E1,6.224325299E-2
1.939341682E0,5.326776579E-2,1.029701233E1,-1.676201075E-2
1.941781109E0,1.496218517E-2,1.038080597E1,-1.029495597E-1
1.944219703E0,-4.190606065E-3,1.046220589E1,-1.747725308E-1
1.946658349E0,-2.573749423E-2,1.051727009E1,-2.585659623E-1
1.949097724E0,-1.376700029E-2,1.053163433E1,-3.471476138E-1
1.951537151E0,-6.643716991E-2,1.049332905E1,-4.189705849E-1
1.953975745E0,-9.037815034E-2,1.047657013E1,-4.860053658E-1
1.956414338E0,-5.925487354E-2,1.045262909E1,-5.578283668E-1
1.958853713E0,-8.978802711E-3,1.042629337E1,-6.272571683E-1
1.961293140E0,2.453857660E-2,1.036404800E1,-6.607745886E-1
1.963731734E0,7.242055237E-2,1.030419445E1,-7.110506296E-1
1.966170328E0,1.131202281E-1,1.023237133E1,-7.421739101E-1
1.968609703E0,1.514258087E-1,1.016773129E1,-7.397798300E-1
1.971049130E0,1.969136894E-1,1.008633137E1,-7.613267303E-1
1.973487724E0,2.328251749E-1,1.003126812E1,-7.278093100E-1
1.975926370E0,2.543720603E-1,9.957050323E0,-7.302034497E-1
1.978365745E0,2.639484704E-1,9.873256683E0,-7.014742494E-1
1.980805172E0,3.070422113E-1,9.801433563E0,-6.535922289E-1
1.983243765E0,3.525300920E-1,9.755947113E0,-5.865575075E-1
1.985682359E0,3.357714117E-1,9.705669403E0,-5.219168663E-1
1.988121734E0,3.309832215E-1,9.650606155E0,-4.285469949E-1
1.990561161E0,3.118304312E-1,9.624270439E0,-3.256007433E-1
1.992999755E0,2.663425505E-1,9.597935677E0,-2.154722065E-1
1.995438349E0,2.376133800E-1,9.552447319E0,-1.101318672E-1
1.997877724E0,1.801549941E-1,9.545266151E0,2.390779555E-3
2.000317151E0,1.250907332E-1,9.518930435E0,1.268839091E-1
2.002755745E0,9.157334268E-2,9.540477753E0,2.418006659E-1
2.005194390E0,7.779888809E-3,9.573994637E0,4.141757488E-1
2.007633765E0,-8.319586515E-2,9.571600914E0,5.793685913E-1
2.010073192E0,-1.454424411E-1,9.590753555E0,7.517436743E-1
2.012511786E0,-2.124772072E-1,9.624270439E0,8.977836967E-1
2.014950380E0,-2.795119584E-1,9.662576675E0,1.046217918E0
2.017389755E0,-3.178175390E-1,9.696093559E0,1.189863682E0
2.019829182E0,-3.321821392E-1,9.715247154E0,1.314356804E0
2.022267776E0,-3.656995296E-1,9.779888153E0,1.412514925E0
2.024706370E0,-3.872464001E-1,9.794251442E0,1.479549646E0
2.027145745E0,-3.680936396E-1,9.813405037E0,1.541796207E0
2.029585172E0,-3.704877198E-1,9.846921921E0,1.551372528E0
2.032023765E0,-3.585172296E-1,9.882833481E0,1.584889889E0
2.034462411E0,-3.273939490E-1,9.882833481E0,1.575313568E0
2.036901786E0,-2.938765585E-1,9.897197723E0,1.534614086E0
2.039341161E0,-2.579650879E-1,9.935503960E0,1.501096725E0
2.041779755E0,-2.316299826E-1,9.959445000E0,1.472367287E0
2.044218401E0,-2.268417925E-1,9.959445000E0,1.402938604E0
2.046657776E0,-2.268417925E-1,9.997750282E0,1.333509684E0
2.049097203E0,-2.005067021E-1,1.000972080E1,1.283233643E0
2.051535797E0,-2.268417925E-1,1.000014496E1,1.197046041E0
2.053974390E0,-2.531768680E-1,1.003126812E1,1.122828960E0
2.056413765E0,-2.436004877E-1,1.000732708E1,1.079735279E0
2.058853192E0,-2.436004877E-1,1.002647972E1,1.031853199E0
2.061291786E0,-2.244476974E-1,1.004084396E1,1.012700558E0
2.063730432E0,-2.220536023E-1,1.003126812E1,9.887594581E-1
2.066169807E0,-2.148713022E-1,1.007196808E1,9.672126174E-1
2.068609182E0,-2.100830972E-1,1.005042076E1,9.049659967E-1
2.071047776E0,-1.981126070E-1,1.005042076E1,8.977836967E-1
2.073486422E0,-1.957184970E-1,1.005760288E1,8.642663360E-1
2.075925797E0,-1.885362118E-1,1.005042076E1,8.235666156E-1
2.078365224E0,-2.029007971E-1,1.001450920E1,8.068079352E-1
2.080803817E0,-1.861421168E-1,9.997750282E0,7.661082745E-1
2.083242411E0,-1.645952165E-1,9.992961884E0,7.493495345E-1
2.085681786E0,-1.622011364E-1,9.983386040E0,7.206203938E-1
2.088121213E0,-1.789598167E-1,9.957050323E0,6.607679129E-1
2.090559807E0,-1.645952165E-1,9.911562920E0,6.152800918E-1
2.092998401E0,-1.454424411E-1,9.868468285E0,5.626098514E-1
2.095437776E0,-1.478365362E-1,9.858892441E0,5.003632903E-1
2.097877203E0,-1.478365362E-1,9.822980881E0,4.716341496E-1
2.100315797E0,-1.406542361E-1,9.818192482E0,3.998111486E-1
2.102754442E0,-1.262896359E-1,9.808616638E0,3.375645876E-1
2.105193817E0,-1.095309556E-1,9.772705078E0,2.920767069E-1
2.107633245E0,-8.319586515E-2,9.741581917E0,2.441947460E-1
2.110071838E0,-9.995456040E-2,9.746369362E0,2.130714655E-1
2.112510432E0,-5.925487354E-2,9.700881958E0,1.580072045E-1
2.114949807E0,-7.122537494E-2,9.698488235E0,1.149134189E-1
2.117389234E0,-4.967848212E-2,9.662576675E0,8.618423343E-2
2.119827828E0,-2.094929665E-2,9.650606155E0,5.745504797E-2
2.122266422E0,-1.376700029E-2,9.650606155E0,4.309045523E-2
2.124705797E0,-2.334339544E-2,9.648211479E0,4.548455775E-2
2.127145224E0,-1.137290150E-2,9.638635635E0,2.633176744E-2
2.129583817E0,-8.978802711E-3,9.655393600E0,3.351406753E-2
2.132022463E0,-8.978802711E-3,9.648211479E0,3.590815514E-2
2.134461838E0,-2.813159302E-2,9.667365074E0,5.027274787E-2
2.136901265E0,-4.489028454E-2,9.676940918E0,6.942553818E-2
2.139339859E0,-5.446667969E-2,9.684123993E0,1.005488336E-1
2.141778453E0,-6.164897606E-2,9.696093559E0,1.268839091E-1
2.144217828E0,-7.840767503E-2,9.712852478E0,1.723717898E-1
2.146657255E0,-8.558996022E-2,9.727216721E0,2.322242558E-1
2.149095849E0,-7.361947000E-2,9.743975639E0,2.753180265E-1
2.151534442E0,-5.207257718E-2,9.770310402E0,3.040472269E-1
2.153973817E0,-1.376700029E-2,9.777492523E0,3.495351076E-1
2.156413245E0,2.991691232E-3,9.811010361E0,3.638996780E-1
2.158851838E0,4.369137064E-2,9.820587158E0,4.069934785E-1
2.161290484E0,8.439104259E-2,9.837346077E0,4.069934785E-1
2.163729859E0,9.396743774E-2,9.830163956E0,4.165698886E-1
2.166169234E0,1.298789233E-1,9.837346077E0,4.165698886E-1
2.168607828E0,1.442435086E-1,9.866074562E0,4.045993686E-1
2.171046474E0,1.514258087E-1,9.851710320E0,3.902347684E-1
2.173485849E0,1.179084331E-1,9.846921921E0,3.782642782E-1
2.175925276E0,1.370612085E-1,9.866074562E0,3.375645876E-1
2.178363870E0,1.298789233E-1,9.887621880E0,3.447469175E-1
2.180802463E0,1.226966232E-1,9.887621880E0,3.040472269E-1
2.183241838E0,1.298789233E-1,9.894804001E0,2.872885466E-1
2.185681265E0,1.226966232E-1,9.892409325E0,2.633475363E-1
2.188119859E0,1.155143380E-1,9.894804001E0,2.394065559E-1
2.190558453E0,1.155143380E-1,9.885228157E0,2.011009753E-1
2.192997880E0,1.250907332E-1,9.897197723E0,2.011009753E-1
2.195437255E0,1.131202281E-1,9.911562920E0,1.771599799E-1
2.197875849E0,9.396743774E-2,9.901987076E0,1.723717898E-1
2.200314495E0,8.678515255E-2,9.909169197E0,1.675835997E-1
2.202753870E0,7.720874250E-2,9.928321838E0,1.699776947E-1
2.205193297E0,5.566186830E-2,9.916350365E0,1.508249044E-1
2.207631890E0,4.369137064E-2,9.935503960E0,1.436426044E-1
2.210070484E0,2.453857660E-2,9.911562920E0,1.220957190E-1
2.212509859E0,2.693267912E-2,9.925928116E0,1.244898140E-1
2.214949286E0,5.975924432E-4,9.928321838E0,1.220957190E-1
2.217387880E0,-4.190606065E-3,9.942686081E0,1.220957190E-1
2.219826474E0,-3.291978687E-2,9.964232445E0,1.053370386E-1
2.222265849E0,-1.855519786E-2,9.942686081E0,9.097243845E-2
2.224705276E0,-3.531388938E-2,9.942686081E0,8.618423343E-2
2.227143870E0,-5.207257718E-2,9.947473526E0,9.097243845E-2
2.229582515E0,-8.319586515E-2,9.961838722E0,8.379013091E-2
2.232021890E0,-7.840767503E-2,9.973810196E0,5.506095290E-2
2.234461265E0,-6.643716991E-2,9.971414566E0,5.266685039E-2
2.236899859E0,-8.558996022E-2,9.952262878E0,5.745504797E-2
2.239338505E0,-5.207257718E-2,9.942686081E0,2.872586995E-2
2.241777880E0,-7.122537494E-2,9.928321838E0,2.154356614E-2
2.244217307E0,-4.489028454E-2,9.899591446E0,-1.197381318E-2
2.246655901E0,-5.925487354E-2,9.875650406E0,-2.873250470E-2
2.249094495E0,-2.813159302E-2,9.854104996E0,-4.070299864E-2
2.251533870E0,-4.489028454E-2,9.815798759E0,-4.070299864E-2
2.253973297E0,-4.489028454E-2,9.811010361E0,-3.352070227E-2
2.256411890E0,-3.052569181E-2,9.777492523E0,-4.788529500E-2
2.258850484E0,-2.573749423E-2,9.772705078E0,-3.830889985E-2
2.261289911E0,-1.855519786E-2,9.770310402E0,-2.873250470E-2
2.263729286E0,-8.978802711E-3,9.784675598E0,-5.027939379E-2
2.266167880E0,-6.584703922E-3,9.765522957E0,-7.185615599E-3
2.268606526E0,2.453857660E-2,9.767916679E0,-1.436791196E-2
2.271045901E0,2.932677791E-2,9.748764038E0,-1.197381318E-2
2.273485328E0,3.650907427E-2,9.760734558E0,-4.791516811E-3
2.275923922E0,6.045006588E-2,9.753551483E0,-7.185615599E-3
2.278362515E0,7.002645731E-2,9.767916679E0,-3.319233656E-6
2.280801890E0,7.960285246E-2,9.753551483E0,-3.319233656E-6
2.283241317E0,8.199694753E-2,9.779888153E0,-2.397421747E-3
2.285679911E0,9.396743774E-2,9.787069321E0,4.784874618E-3
2.288118505E0,1.203025281E-1,9.789463997E0,-2.397421747E-3
2.290557880E0,1.011497378E-1,9.789463997E0,-3.591480106E-2
2.292997307E0,1.083320379E-1,9.806222916E0,-3.830889985E-2
2.295435901E0,7.720874250E-2,9.794251442E0,-5.267349258E-2
2.297874547E0,1.035438329E-1,9.822980881E0,-4.788529500E-2
2.300313922E0,9.636153281E-2,9.822980881E0,-4.549119622E-2
2.302753349E0,9.636153281E-2,9.827770233E0,-5.985578895E-2
2.305191942E0,9.157334268E-2,9.839739799E0,-4.309709743E-2
2.307630536E0,9.396743774E-2,9.818192482E0,-7.182627916E-2
2.310069911E0,9.636153281E-2,9.832557678E0,-8.140267432E-2
2.312509338E0,7.242055237E-2,9.854104996E0,-7.900857925E-2
2.314947932E0,7.960285246E-2,9.842133522E0,-6.224988773E-2
2.317386526E0,6.763236225E-2,9.811010361E0,-6.464398652E-2
2.319825901E0,5.087367073E-2,9.834951401E0,-7.900857925E-2
2.322265328E0,6.284415722E-2,9.827770233E0,-9.097906947E-2
2.324703922E0,4.608546942E-2,9.825374603E0,-6.464398652E-2
2.327142567E0,4.369137064E-2,9.784675598E0,-5.506759137E-2
2.329581942E0,2.932677791E-2,9.791857719E0,-3.591480106E-2
2.332021317E0,1.017398760E-2,9.791857719E0,-2.155021019E-2
2.334459911E0,-8.978802711E-3,9.796646118E0,-3.352070227E-2
2.336898557E0,-1.855519786E-2,9.796646118E0,-1.915610954E-2
2.339337932E0,-2.094929665E-2,9.806222916E0,2.390779555E-3
2.341777359E0,-5.925487354E-2,9.794251442E0,-1.197381318E-2
2.344215953E0,-5.446667969E-2,9.808616638E0,4.784874618E-3
2.346654547E0,-6.883126497E-2,9.815798759E0,2.154356614E-2
2.349093922E0,-8.080177009E-2,9.832557678E0,7.178977132E-3
2.351533349E0,-9.037815034E-2,9.830163956E0,-4.791516811E-3
2.353971942E0,-1.167132556E-1,9.818192482E0,2.633176744E-2
2.356410588E0,-9.995456040E-2,9.813405037E0,5.266685039E-2
2.358849963E0,-1.047427505E-1,9.846921921E0,2.393767238E-2
2.361289338E0,-1.047427505E-1,9.822980881E0,3.590815514E-2
2.363727932E0,-1.191073507E-1,9.827770233E0,2.393767238E-2
2.366166578E0,-1.071368456E-1,9.825374603E0,1.436126977E-2
2.368605953E0,-8.558996022E-2,9.808616638E0,2.633176744E-2
2.371045380E0,-8.558996022E-2,9.794251442E0,3.830225766E-2
2.373483974E0,-9.037815034E-2,9.784675598E0,1.675537229E-2
2.375922567E0,-8.798407018E-2,9.784675598E0,5.266685039E-2
2.378361942E0,-9.277226031E-2,9.787069321E0,4.309045523E-2
2.380801370E0,-7.122537494E-2,9.765522957E0,4.787866026E-2
2.383239963E0,-6.643716991E-2,9.777492523E0,5.506095290E-2
2.385678557E0,-5.925487354E-2,9.796646118E0,7.900194079E-2
2.388117984E0,-2.094929665E-2,9.808616638E0,6.703144312E-2
2.390557359E0,-1.376700029E-2,9.885228157E0,8.139604330E-2
2.392995953E0,2.991691232E-3,9.897197723E0,1.029429287E-1
2.395434599E0,1.256808639E-2,9.978597641E0,1.101252139E-1
2.397873974E0,-1.796506345E-3,1.011745453E1,1.364603192E-1
2.400313401E0,7.779888809E-3,1.021082497E1,1.508249044E-1
2.402751995E0,-3.052569181E-2,1.026110077E1,1.675835997E-1
2.405190588E0,-1.376700029E-2,1.029461861E1,1.699776947E-1
2.407629963E0,-8.978802711E-3,1.031855965E1,1.604012996E-1
2.410069390E0,-4.010208696E-2,1.037123013E1,1.627953947E-1
2.412507984E0,-5.686077848E-2,1.034968281E1,2.106773853E-1
2.414946578E0,-7.361947000E-2,1.032095337E1,2.465888560E-1
2.417385953E0,-6.643716991E-2,1.030658913E1,2.609534264E-1
2.419825380E0,-1.047427505E-1,1.030898285E1,3.184118271E-1
2.422263974E0,-1.262896359E-1,1.025152493E1,3.399586976E-1
2.424702620E0,-1.262896359E-1,1.018927765E1,4.093875587E-1
2.427141995E0,-1.334719360E-1,1.010309029E1,4.812105298E-1
2.429581422E0,-1.167132556E-1,9.971414566E0,5.530335307E-1
2.432020015E0,-1.143191457E-1,9.887621880E0,6.152800918E-1
2.434458609E0,-1.669893116E-1,9.811010361E0,6.775266528E-1
2.436897984E0,-2.076890022E-1,9.741581917E0,7.421672940E-1
2.439337411E0,-2.364181876E-1,9.650606155E0,7.876551747E-1
2.441776005E0,-2.699355781E-1,9.652999878E0,8.738427758E-1
2.444214599E0,-2.986647487E-1,9.669758797E0,8.977836967E-1
2.446653974E0,-3.417585492E-1,9.717640877E0,9.408774972E-1
2.449093401E0,-3.369703591E-1,9.784675598E0,9.863653779E-1
2.451531995E0,-3.202116191E-1,9.820587158E0,1.048611879E0
2.453970640E0,-3.369703591E-1,9.839739799E0,1.086917400E0
2.456410015E0,-3.585172296E-1,9.849315643E0,1.151558161E0
2.458849442E0,-3.896405101E-1,9.820587158E0,1.158740520E0
2.461288036E0,-4.255520105E-1,9.755947113E0,1.211410522E0
2.463726630E0,-4.518870711E-1,9.727216721E0,1.242533922E0
2.466166005E0,-5.165277719E-1,9.705669403E0,1.223381042E0
2.468605432E0,-5.404687524E-1,9.660182953E0,1.139587641E0
2.471044026E0,-5.237100124E-1,9.633848190E0,9.241188169E-1
2.473482620E0,-4.351283908E-1,9.638635635E0,5.913390517E-1
2.475921995E0,-3.609113097E-1,9.662576675E0,2.441947460E-1
2.478361422E0,-2.459945828E-1,9.672152519E0,-8.858497441E-2
2.480800015E0,-1.454424411E-1,9.703275681E0,-4.141823947E-1
2.483238661E0,-4.249618575E-2,9.712852478E0,-7.038683891E-1
2.485678036E0,5.087367073E-2,9.736793518E0,-8.977903724E-1
2.488117463E0,1.250907332E-1,9.717640877E0,-1.055800915E0
2.490556057E0,2.112782747E-1,9.698488235E0,-1.132411957E0
2.492994651E0,3.022540212E-1,9.724822998E0,-1.180294037E0
2.495434026E0,3.740769923E-1,9.748764038E0,-1.161141157E0
2.497873453E0,4.626586437E-1,9.784675598E0,-1.132411957E0
2.500312047E0,5.440580249E-1,9.837346077E0,-1.065377235E0
2.502750640E0,5.919399858E-1,9.863680840E0,-9.791896939E-1
2.505190067E0,6.541865468E-1,9.923532486E0,-8.523024917E-1
2.507629442E0,7.044626474E-1,9.971414566E0,-7.661149502E-1
2.510068036E0,7.307977080E-1,1.000972080E1,-6.655627489E-1
2.512506682E0,7.906501889E-1,1.004563236E1,-5.865575075E-1
2.514946057E0,8.385321498E-1,1.005999660E1,-5.219168663E-1
2.517385484E0,8.888082504E-1,1.004563236E1,-4.668525755E-1
2.519824078E0,9.079610109E-1,1.006478500E1,-4.500938654E-1
2.522262672E0,9.606311917E-1,1.006239033E1,-4.189705849E-1
2.524702047E0,9.486606717E-1,1.005999660E1,-4.285469949E-1
2.527141474E0,9.510548115E-1,1.003844929E1,-4.141823947E-1
2.529580067E0,9.749957919E-1,1.001450920E1,-4.524880052E-1
2.532018713E0,9.726017118E-1,9.961838722E0,-4.668525755E-1
2.534458088E0,9.342961311E-1,9.966627121E0,-4.740348756E-1
2.536897463E0,8.888082504E-1,9.882833481E0,-5.290991664E-1
2.539336057E0,8.289557695E-1,9.875650406E0,-5.769811273E-1
2.541774703E0,7.643150687E-1,9.844528198E0,-6.296513081E-1
2.544214078E0,7.116449475E-1,9.796646118E0,-7.038683891E-1
2.546653505E0,6.541865468E-1,9.784675598E0,-7.541444302E-1
2.549092099E0,5.895458460E-1,9.739188194E0,-7.972381711E-1
2.551530692E0,5.512403250E-1,9.708065033E0,-8.379378915E-1
2.553970067E0,5.296934247E-1,9.674547195E0,-8.666670322E-1
2.556409495E0,5.320875049E-1,9.657789230E0,-8.977903724E-1
2.558848088E0,5.272992849E-1,9.688911438E0,-9.193372726E-1
2.561286734E0,5.249052048E-1,9.660182953E0,-9.384899735E-1
2.563726109E0,5.272992849E-1,9.693699837E0,-9.289136529E-1
2.566165536E0,5.272992849E-1,9.688911438E0,-8.930021524E-1
2.568604130E0,5.344816446E-1,9.746369362E0,-8.570907116E-1
2.571042724E0,5.608167052E-1,9.743975639E0,-7.972381711E-1
2.573482099E0,5.584226251E-1,9.751157761E0,-7.493562698E-1
2.575921526E0,5.560284853E-1,9.787069321E0,-6.607745886E-1
2.578360120E0,5.440580249E-1,9.794251442E0,-5.338873863E-1
2.580798713E0,5.488461852E-1,9.815798759E0,-3.782709241E-1
2.583238088E0,5.368756652E-1,9.820587158E0,-2.322309017E-1
2.585677515E0,5.009642243E-1,9.844528198E0,-1.197082549E-1
2.588116109E0,4.794173539E-1,9.868468285E0,1.675537229E-2
2.590554755E0,4.435058832E-1,9.899591446E0,1.173075140E-1
2.592994130E0,4.315353632E-1,9.940291405E0,1.915245801E-1
2.595433557E0,4.075943828E-1,9.961838722E0,2.801062167E-1
2.597872151E0,3.932297826E-1,9.971414566E0,3.064413071E-1
2.600310745E0,3.884415925E-1,1.000972080E1,2.968649268E-1
2.602750120E0,3.597123921E-1,1.000493240E1,2.992590368E-1
2.605189547E0,3.357714117E-1,1.003366184E1,3.016531169E-1
2.607628140E0,3.070422113E-1,1.005281448E1,2.561652660E-1
2.610066786E0,2.591602504E-1,1.006717873E1,2.202537656E-1
2.612506161E0,2.088841796E-1,1.007436180E1,1.747658849E-1
2.614945536E0,1.633963138E-1,1.009590912E1,1.077311337E-1
2.617384130E0,1.059379429E-1,1.012463760E1,9.576062858E-2
2.619822776E0,5.087367073E-2,1.011506081E1,4.069636017E-2
2.622262151E0,1.256808639E-2,1.010069656E1,4.548455775E-2
2.624701578E0,-4.967848212E-2,1.009111977E1,4.069636017E-2
2.627140172E0,-9.516635537E-2,1.006957245E1,4.309045523E-2
2.629578765E0,-1.167132556E-1,1.005281448E1,1.675537229E-2
2.632018140E0,-1.382601261E-1,1.000972080E1,1.196717471E-2
2.634457567E0,-1.382601261E-1,9.978597641E0,4.787866026E-2
2.636896161E0,-1.574129313E-1,9.916350365E0,5.027274787E-2
2.639334807E0,-1.454424411E-1,9.916350365E0,6.463734806E-2
2.641774182E0,-1.215014458E-1,9.880439758E0,1.005488336E-1
2.644213609E0,-9.037815034E-2,9.866074562E0,1.412484944E-1
2.646652203E0,-9.037815034E-2,9.846921921E0,1.723717898E-1
2.649090797E0,-8.319586515E-2,9.822980881E0,1.795540750E-1
2.651530172E0,-9.756045043E-2,9.837346077E0,1.915245801E-1
2.653969599E0,-7.840767503E-2,9.842133522E0,2.202537656E-1
2.656408192E0,-6.883126497E-2,9.846921921E0,2.298301458E-1
2.658846838E0,-5.925487354E-2,9.825374603E0,2.346183360E-1
2.661286213E0,-5.925487354E-2,9.868468285E0,2.250419557E-1
2.663725588E0,-1.023486555E-1,9.890015602E0,2.250419557E-1
2.666164182E0,-8.558996022E-2,9.880439758E0,1.795540750E-1
2.668602828E0,-9.995456040E-2,9.897197723E0,1.867363751E-1
2.671042203E0,-1.406542361E-1,9.890015602E0,1.867363751E-1
2.673481630E0,-1.286837459E-1,9.885228157E0,1.699776947E-1
2.675920224E0,-1.454424411E-1,9.906774521E0,1.532189995E-1
2.678358817E0,-1.478365362E-1,9.901987076E0,1.197016090E-1
2.680798192E0,-1.502306312E-1,9.923532486E0,1.101252139E-1
2.683237620E0,-1.191073507E-1,9.911562920E0,6.942553818E-2
2.685676213E0,-1.071368456E-1,9.897197723E0,4.309045523E-2
2.688114859E0,-8.080177009E-2,9.935503960E0,3.590815514E-2
2.690554234E0,-8.080177009E-2,9.930715561E0,1.196717471E-2
2.692993661E0,-5.925487354E-2,9.897197723E0,-1.197381318E-2
2.695432255E0,-4.489028454E-2,9.901987076E0,-3.112660348E-2
2.697870849E0,-6.584703922E-3,9.890015602E0,-5.267349258E-2
2.700310224E0,1.256808639E-2,9.897197723E0,-8.140267432E-2
2.702749651E0,3.411497548E-2,9.899591446E0,-7.900857925E-2
2.705188245E0,3.650907427E-2,9.892409325E0,-1.005554646E-1
2.707626890E0,4.129726812E-2,9.928321838E0,-1.173141524E-1
2.710066265E0,5.566186830E-2,9.901987076E0,-1.364669502E-1
2.712505692E0,6.523825228E-2,9.875650406E0,-1.316787452E-1
2.714944286E0,7.720874250E-2,9.894804001E0,-1.412551403E-1
2.717382880E0,9.636153281E-2,9.899591446E0,-1.723784357E-1
2.719822255E0,1.059379429E-1,9.882833481E0,-2.082899064E-1
2.722261682E0,1.562140137E-1,9.890015602E0,-1.939253062E-1
2.724700276E0,1.705785990E-1,9.866074562E0,-2.202604115E-1
2.727138922E0,1.897313893E-1,9.856498718E0,-2.561718822E-1
2.729578297E0,2.160664797E-1,9.854104996E0,-2.489895970E-1
2.732017724E0,2.088841796E-1,9.863680840E0,-2.633541822E-1
2.734456317E0,2.400074601E-1,9.844528198E0,-2.825069726E-1
2.736894911E0,2.304310799E-1,9.811010361E0,-2.920833826E-1
2.739334286E0,2.376133800E-1,9.803829193E0,-3.136302531E-1
2.741773713E0,2.447956800E-1,9.784675598E0,-3.088420630E-1
2.744212307E0,2.400074601E-1,9.784675598E0,-3.256007433E-1
2.746650953E0,2.184605747E-1,9.775098801E0,-3.279948533E-1
2.749090328E0,2.064900696E-1,9.770310402E0,-3.279948533E-1
2.751529755E0,2.040959746E-1,9.751157761E0,-3.423594236E-1
2.753968349E0,2.017018795E-1,9.732006073E0,-3.423594236E-1
2.756406942E0,2.208546698E-1,9.746369362E0,-3.519358337E-1
2.758846317E0,2.352192551E-1,9.758340836E0,-3.663004339E-1
2.761285745E0,2.376133800E-1,9.743975639E0,-4.046059847E-1
2.763724338E0,2.711307406E-1,9.751157761E0,-4.070000947E-1
2.766162984E0,2.759189308E-1,9.777492523E0,-4.189705849E-1
2.768602359E0,2.711307406E-1,9.758340836E0,-4.285469949E-1
2.771041786E0,2.926776111E-1,9.770310402E0,-4.309411049E-1
2.773480380E0,2.854953408E-1,9.789463997E0,-4.237588048E-1
2.775918974E0,3.190127015E-1,9.791857719E0,-4.333351851E-1
2.778358349E0,2.687366605E-1,9.801433563E0,-4.524880052E-1
2.780797776E0,2.831012607E-1,9.808616638E0,-4.453056753E-1
2.783236370E0,2.352192551E-1,9.830163956E0,-4.405174851E-1
2.785675015E0,2.232487798E-1,9.827770233E0,-4.476997852E-1
2.788114390E0,2.352192551E-1,9.854104996E0,-4.165765047E-1
2.790553765E0,2.160664797E-1,9.868468285E0,-4.046059847E-1
2.792992359E0,2.136723697E-1,9.892409325E0,-3.710886240E-1
2.795431005E0,2.112782747E-1,9.899591446E0,-3.615122139E-1
2.797870380E0,1.825490892E-1,9.904380798E0,-3.591181338E-1
2.800309807E0,1.945195943E-1,9.911562920E0,-3.016597629E-1
2.802748401E0,2.184605747E-1,9.933109283E0,-2.705364823E-1
2.805186995E0,2.064900696E-1,9.906774521E0,-2.609600723E-1
2.807626422E0,2.184605747E-1,9.897197723E0,-2.370190918E-1
2.810065849E0,2.017018795E-1,9.887621880E0,-2.106840163E-1
2.812504442E0,1.729726940E-1,9.897197723E0,-1.675902307E-1
2.814943036E0,1.681844890E-1,9.880439758E0,-1.675902307E-1
2.817382411E0,1.562140137E-1,9.911562920E0,-1.460433453E-1
2.819821838E0,1.250907332E-1,9.921138763E0,-1.125259623E-1
2.822260432E0,9.875564277E-2,9.906774521E0,-8.140267432E-2
2.824699078E0,8.917924762E-2,9.918745041E0,-8.858497441E-2
2.827138453E0,5.805596337E-2,9.930715561E0,-6.703808904E-2
2.829577828E0,5.566186830E-2,9.925928116E0,-5.506759137E-2
2.832016422E0,2.693267912E-2,9.947473526E0,-5.267349258E-2
2.834455067E0,2.932677791E-2,9.928321838E0,-4.549119622E-2
2.836894442E0,4.129726812E-2,9.911562920E0,-2.394430712E-2
2.839333870E0,4.369137064E-2,9.918745041E0,-2.394430712E-2
2.841772463E0,6.284415722E-2,9.897197723E0,-3.591480106E-2
2.844211057E0,7.242055237E-2,9.892409325E0,-1.197381318E-2
2.846650484E0,6.045006588E-2,9.866074562E0,-3.112660348E-2
2.849089911E0,5.566186830E-2,9.851710320E0,-4.791516811E-3
2.851528505E0,7.242055237E-2,9.856498718E0,-7.185615599E-3
2.853967099E0,7.481466234E-2,9.856498718E0,-3.591480106E-2
2.856406474E0,9.157334268E-2,9.837346077E0,-2.873250470E-2
2.858845901E0,9.396743774E-2,9.837346077E0,-2.155021019E-2
2.861284495E0,1.250907332E-1,9.820587158E0,-1.197381318E-2
2.863723140E0,9.396743774E-2,9.846921921E0,-4.309709743E-2
2.866162515E0,1.083320379E-1,9.839739799E0,-5.267349258E-2
2.868601942E0,8.439104259E-2,9.842133522E0,-5.027939379E-2
2.871040536E0,8.917924762E-2,9.868468285E0,-5.746169016E-2
2.873479130E0,6.763236225E-2,9.839739799E0,-7.182627916E-2
2.875918505E0,5.087367073E-2,9.856498718E0,-6.464398652E-2
2.878357932E0,3.650907427E-2,9.870862961E0,-8.379677683E-2
2.880796526E0,2.214448154E-2,9.866074562E0,-9.576726705E-2
2.883235172E0,-1.376700029E-2,9.868468285E0,-1.197082549E-1
2.885674547E0,-2.094929665E-2,9.878046036E0,-1.125259623E-1
2.888113974E0,-4.249618575E-2,9.875650406E0,-1.292846501E-1
2.890552567E0,-3.291978687E-2,9.856498718E0,-1.268905550E-1
2.892991161E0,-5.686077848E-2,9.861287117E0,-1.244964525E-1
2.895430536E0,-6.404307485E-2,9.858892441E0,-1.651961207E-1
2.897869963E0,-8.798407018E-2,9.830163956E0,-1.747725308E-1
2.900308557E0,-6.643716991E-2,9.837346077E0,-1.747725308E-1
2.902747203E0,-5.207257718E-2,9.818192482E0,-1.675902307E-1
2.905186578E0,-1.023486555E-1,9.808616638E0,-1.747725308E-1
2.907626005E0,-9.995456040E-2,9.808616638E0,-1.699843407E-1
2.910064599E0,-9.037815034E-2,9.794251442E0,-1.867430359E-1
2.912503192E0,-9.277226031E-2,9.789463997E0,-1.460433453E-1
2.914942567E0,-9.995456040E-2,9.775098801E0,-1.484374404E-1
2.917381995E0,-9.756045043E-2,9.779888153E0,-1.388610452E-1
2.919820588E0,-1.047427505E-1,9.765522957E0,-1.460433453E-1
2.922259234E0,-1.167132556E-1,9.777492523E0,-1.580138355E-1
2.924698609E0,-1.095309556E-1,9.784675598E0,-1.580138355E-1
2.927138036E0,-1.047427505E-1,9.794251442E0,-1.436492503E-1
2.929576630E0,-1.286837459E-1,9.784675598E0,-1.388610452E-1
2.932015224E0,-1.262896359E-1,9.799039841E0,-1.412551403E-1
2.934454651E0,-1.286837459E-1,9.806222916E0,-1.508315355E-1
2.936894026E0,-1.286837459E-1,9.796646118E0,-1.532256305E-1
2.939332620E0,-1.023486555E-1,9.813405037E0,-1.340728402E-1
2.941771265E0,-1.143191457E-1,9.811010361E0,-1.077377647E-1
2.944210640E0,-1.119250506E-1,9.803829193E0,-1.316787452E-1
2.946650067E0,-1.047427505E-1,9.801433563E0,-1.340728402E-1
2.949088661E0,-8.798407018E-2,9.799039841E0,-1.388610452E-1
2.951527307E0,-9.516635537E-2,9.806222916E0,-1.436492503E-1
2.953966682E0,-8.080177009E-2,9.815798759E0,-1.125259623E-1
2.956406109E0,-8.798407018E-2,9.808616638E0,-1.197082549E-1
2.958844703E0,-9.037815034E-2,9.830163956E0,-1.292846501E-1
2.961283297E0,-1.047427505E-1,9.844528198E0,-1.149200648E-1
2.963722672E0,-9.277226031E-2,9.842133522E0,-1.077377647E-1
2.966162099E0,-8.798407018E-2,9.837346077E0,-1.053436697E-1
2.968600692E0,-6.883126497E-2,9.827770233E0,-9.576726705E-2
2.971039338E0,-7.601356506E-2,9.820587158E0,-6.703808904E-2
2.973478713E0,-5.446667969E-2,9.878046036E0,-8.379677683E-2
2.975918140E0,-8.319586515E-2,9.890015602E0,-7.661448419E-2
2.978356734E0,-8.558996022E-2,9.885228157E0,-5.746169016E-2
2.980795380E0,-8.558996022E-2,9.911562920E0,-5.267349258E-2
2.983234755E0,-5.925487354E-2,9.901987076E0,-4.788529500E-2
2.985674182E0,-7.601356506E-2,9.906774521E0,-4.309709743E-2
2.988112776E0,-5.686077848E-2,9.928321838E0,-3.591480106E-2
2.990551370E0,-4.967848212E-2,9.921138763E0,-1.676201075E-2
2.992990745E0,-3.531388938E-2,9.921138763E0,-2.155021019E-2
2.995430172E0,-5.925487354E-2,9.925928116E0,-9.579716250E-3
2.997868765E0,-4.010208696E-2,9.937897682E0,-2.155021019E-2
3.000307411E0,-4.249618575E-2,9.959445000E0,-2.397421747E-3
3.002746786E0,-6.883126497E-2,9.954656601E0,4.784874618E-3
3.005186213E0,-5.446667969E-2,9.933109283E0,1.196717471E-2
3.007624807E0,-5.686077848E-2,9.954656601E0,2.390779555E-3
3.010063401E0,-5.446667969E-2,9.921138763E0,4.784874618E-3
3.012502828E0,-5.925487354E-2,9.921138763E0,-9.579716250E-3
3.014942203E0,-6.404307485E-2,9.923532486E0,4.784874618E-3
3.017380797E0,-3.531388938E-2,9.921138763E0,-2.397421747E-3
3.019819442E0,-4.728438333E-2,9.894804001E0,-2.397421747E-3
3.022258817E0,-4.489028454E-2,9.870862961E0,4.784874618E-3
3.024698245E0,-4.967848212E-2,9.882833481E0,-9.579716250E-3
3.027136838E0,-7.840767503E-2,9.856498718E0,2.390779555E-3
3.029575484E0,-7.122537494E-2,9.868468285E0,2.393767238E-2
3.032014859E0,-9.277226031E-2,9.868468285E0,2.633176744E-2
3.034454286E0,-1.071368456E-1,9.873256683E0,4.548455775E-2
3.036892880E0,-9.277226031E-2,9.858892441E0,5.745504797E-2
3.039331474E0,-1.023486555E-1,9.870862961E0,6.942553818E-2
3.041770849E0,-9.277226031E-2,9.873256683E0,8.618423343E-2
3.044210276E0,-9.037815034E-2,9.868468285E0,8.857834339E-2
3.046648870E0,-9.516635537E-2,9.880439758E0,9.576062858E-2
3.049087515E0,-1.071368456E-1,9.882833481E0,9.097243845E-2
3.051526890E0,-1.023486555E-1,9.890015602E0,8.618423343E-2
3.053966317E0,-8.798407018E-2,9.839739799E0,4.309045523E-2
3.056404911E0,-9.995456040E-2,9.844528198E0,2.872586995E-2
3.058843505E0,-8.319586515E-2,9.820587158E0,9.573075920E-3
3.061282932E0,-9.516635537E-2,9.806222916E0,-1.915610954E-2
3.063722359E0,-1.023486555E-1,9.818192482E0,-2.394430712E-2
3.066160953E0,-9.756045043E-2,9.818192482E0,-6.464398652E-2
3.068599547E0,-7.361947000E-2,9.796646118E0,-9.097906947E-2
3.071038922E0,-8.558996022E-2,9.813405037E0,-8.379677683E-2
3.073478349E0,-7.840767503E-2,9.801433563E0,-8.379677683E-2
3.075916942E0,-5.446667969E-2,9.775098801E0,-1.173141524E-1
3.078355588E0,-4.728438333E-2,9.777492523E0,-1.316787452E-1
3.080794963E0,-3.770798817E-2,9.770310402E0,-1.292846501E-1
3.083234390E0,-3.052569181E-2,9.777492523E0,-1.364669502E-1
3.085672984E0,-1.855519786E-2,9.767916679E0,-1.197082549E-1
3.088111578E0,-1.616109908E-2,9.767916679E0,-9.097906947E-2
3.090551005E0,1.017398760E-2,9.796646118E0,-1.101318672E-1
3.092990432E0,2.453857660E-2,9.794251442E0,-8.858497441E-2
3.095429026E0,1.975038275E-2,9.794251442E0,-6.943218410E-2
3.097867620E0,3.890317306E-2,9.789463997E0,-3.830889985E-2
3.100306995E0,5.087367073E-2,9.801433563E0,-7.182627916E-2
3.102746422E0,5.805596337E-2,9.794251442E0,-3.830889985E-2
3.105185015E0,7.720874250E-2,9.815798759E0,-4.549119622E-2
3.107623661E0,7.002645731E-2,9.799039841E0,-5.027939379E-2
3.110063036E0,7.242055237E-2,9.815798759E0,-2.633840591E-2
3.112502463E0,6.763236225E-2,9.834951401E0,-1.436791196E-2
3.114941057E0,7.242055237E-2,9.820587158E0,-2.155021019E-2
3.117379651E0,3.650907427E-2,9.851710320E0,-1.197381318E-2
3.119819078E0,4.129726812E-2,9.832557678E0,-2.394430712E-2
3.122258453E0,7.720874250E-2,9.839739799E0,-7.185615599E-3
3.124697047E0,6.523825228E-2,9.856498718E0,-2.394430712E-2
3.127135692E0,5.326776579E-2,9.885228157E0,-2.155021019E-2
3.129575067E0,4.608546942E-2,9.892409325E0,-4.070299864E-2
3.132014495E0,4.129726812E-2,9.873256683E0,-5.027939379E-2
3.134453088E0,1.975038275E-2,9.894804001E0,-6.464398652E-2
3.136891734E0,1.496218517E-2,9.901987076E0,-7.900857925E-2
3.139331109E0,1.496218517E-2,9.918745041E0,-6.943218410E-2
3.141770536E0,5.385788158E-3,9.911562920E0,-9.337317199E-2
3.144209130E0,1.496218517E-2,9.901987076E0,-9.576726705E-2
3.146647776E0,1.975038275E-2,9.892409325E0,-8.379677683E-2
3.149087151E0,2.693267912E-2,9.904380798E0,-1.173141524E-1
3.151526578E0,-4.190606065E-3,9.906774521E0,-1.340728402E-1
3.153965172E0,-2.094929665E-2,9.890015602E0,-1.149200648E-1
3.156403765E0,-1.137290150E-2,9.885228157E0,-1.244964525E-1
3.158843140E0,-1.376700029E-2,9.875650406E0,-1.316787452E-1
3.161282567E0,-4.190606065E-3,9.863680840E0,-1.388610452E-1
3.163721161E0,-3.770798817E-2,9.882833481E0,-1.340728402E-1
3.166159807E0,-2.094929665E-2,9.897197723E0,-1.388610452E-1
3.168599182E0,5.975924432E-4,9.878046036E0,-1.173141524E-1
3.171038609E0,-2.334339544E-2,9.875650406E0,-1.221023574E-1
3.173477203E0,-3.770798817E-2,9.861287117E0,-1.221023574E-1
3.175915849E0,-2.813159302E-2,9.851710320E0,-1.292846501E-1
3.178355224E0,-4.010208696E-2,9.834951401E0,-1.292846501E-1
3.180794651E0,-6.164897606E-2,9.846921921E0,-1.173141524E-1
3.183233245E0,-4.249618575E-2,9.839739799E0,-1.340728402E-1
3.185671838E0,-4.010208696E-2,9.832557678E0,-1.508315355E-1
3.188111213E0,-4.249618575E-2,9.822980881E0,-1.436492503E-1
3.190550640E0,-5.207257718E-2,9.834951401E0,-1.364669502E-1
3.192989234E0,-4.010208696E-2,9.825374603E0,-1.604079306E-1
3.195427880E0,-3.052569181E-2,9.827770233E0,-1.292846501E-1
3.197867255E0,-4.728438333E-2,9.827770233E0,-1.580138355E-1
3.200306682E0,-1.855519786E-2,9.861287117E0,-1.364669502E-1
3.202745276E0,-3.052569181E-2,9.856498718E0,-1.197082549E-1
3.205183922E0,-2.573749423E-2,9.827770233E0,-1.340728402E-1
3.207623297E0,1.017398760E-2,9.832557678E0,-6.703808904E-2
3.210062724E0,1.735628210E-2,9.832557678E0,-7.900857925E-2
3.212501317E0,1.017398760E-2,9.827770233E0,-8.379677683E-2
3.214939911E0,1.017398760E-2,9.846921921E0,-5.506759137E-2
3.217379338E0,2.453857660E-2,9.820587158E0,-6.224988773E-2
3.219818765E0,1.735628210E-2,9.832557678E0,-2.873250470E-2
3.222257359E0,-1.137290150E-2,9.834951401E0,-1.915610954E-2
3.224695953E0,-1.796506345E-3,9.837346077E0,-2.633840591E-2
3.227135328E0,5.385788158E-3,9.844528198E0,1.436126977E-2
3.229574755E0,1.735628210E-2,9.832557678E0,9.573075920E-3
3.232013349E0,3.172087297E-2,9.825374603E0,3.351406753E-2
3.234451995E0,3.650907427E-2,9.827770233E0,5.027274787E-2
3.236891370E0,7.779888809E-3,9.813405037E0,4.787866026E-2
3.239330797E0,1.256808639E-2,9.803829193E0,7.660783827E-2
3.241769390E0,1.496218517E-2,9.813405037E0,6.463734806E-2
3.244208036E0,4.847956449E-2,9.808616638E0,8.857834339E-2
3.246647411E0,2.693267912E-2,9.796646118E0,8.618423343E-2
3.249086838E0,2.932677791E-2,9.803829193E0,7.900194079E-2
3.251525432E0,5.566186830E-2,9.811010361E0,5.984915048E-2
3.253964026E0,4.129726812E-2,9.815798759E0,5.745504797E-2
3.256403453E0,2.932677791E-2,9.822980881E0,2.872586995E-2
3.258842880E0,1.735628210E-2,9.825374603E0,4.069636017E-2
3.261281474E0,1.017398760E-2,9.849315643E0,4.784874618E-3
3.263720067E0,5.385788158E-3,9.846921921E0,-1.197381318E-2
3.266159442E0,-1.376700029E-2,9.866074562E0,-1.676201075E-2
3.268598870E0,7.779888809E-3,9.885228157E0,-3.591480106E-2
3.271037463E0,1.975038275E-2,9.875650406E0,-3.591480106E-2
3.273476109E0,-6.584703922E-3,9.887621880E0,-5.746169016E-2
3.275915484E0,-6.584703922E-3,9.899591446E0,-8.140267432E-2
3.278354911E0,1.017398760E-2,9.906774521E0,-7.422038168E-2
3.280793505E0,5.385788158E-3,9.901987076E0,-8.379677683E-2
3.283232099E0,3.650907427E-2,9.904380798E0,-1.005554646E-1
3.285671526E0,6.284415722E-2,9.901987076E0,-8.619087189E-2
3.288110953E0,5.566186830E-2,9.887621880E0,-9.097906947E-2
3.290549547E0,8.439104259E-2,9.861287117E0,-7.900857925E-2
3.292988140E0,9.157334268E-2,9.863680840E0,-1.125259623E-1
3.295427515E0,7.002645731E-2,9.844528198E0,-1.101318672E-1
3.297866942E0,5.566186830E-2,9.861287117E0,-9.816136956E-2
3.300305536E0,4.129726812E-2,9.844528198E0,-1.149200648E-1
3.302744182E0,3.890317306E-2,9.820587158E0,-1.125259623E-1
3.305183557E0,5.385788158E-3,9.815798759E0,-1.053436697E-1
3.307622984E0,3.411497548E-2,9.818192482E0,-1.436492503E-1
3.310061578E0,1.735628210E-2,9.832557678E0,-1.364669502E-1
3.312500224E0,1.496218517E-2,9.818192482E0,-1.364669502E-1
3.314939599E0,2.693267912E-2,9.808616638E0,-1.508315355E-1
3.317379026E0,1.017398760E-2,9.827770233E0,-1.699843407E-1
3.319817620E0,1.975038275E-2,9.842133522E0,-1.556197405E-1
3.322256265E0,2.453857660E-2,9.837346077E0,-1.747725308E-1
3.324695640E0,1.735628210E-2,9.837346077E0,-1.723784357E-1
3.327135015E0,5.975924432E-4,9.825374603E0,-1.771666259E-1
3.329573609E0,-8.978802711E-3,9.858892441E0,-1.771666259E-1
3.332012255E0,-1.137290150E-2,9.866074562E0,-1.580138355E-1
3.334451630E0,-2.573749423E-2,9.873256683E0,-1.364669502E-1
3.336891057E0,-4.489028454E-2,9.878046036E0,-1.580138355E-1
3.339329651E0,-4.010208696E-2,9.878046036E0,-1.316787452E-1
3.341768297E0,-3.770798817E-2,9.873256683E0,-1.244964525E-1
3.344207672E0,-6.883126497E-2,9.858892441E0,-1.077377647E-1
3.346647099E0,-5.207257718E-2,9.873256683E0,-7.182627916E-2
3.349085692E0,-5.925487354E-2,9.854104996E0,-7.422038168E-2
3.351524338E0,-5.446667969E-2,9.844528198E0,-5.267349258E-2
3.353963713E0,-5.925487354E-2,9.842133522E0,-2.155021019E-2
3.356403140E0,-4.967848212E-2,9.820587158E0,-1.436791196E-2
3.358841734E0,-6.404307485E-2,9.818192482E0,1.675537229E-2
3.361280328E0,-5.686077848E-2,9.820587158E0,3.111996502E-2
3.363719755E0,-4.728438333E-2,9.825374603E0,2.154356614E-2
3.366159130E0,-2.813159302E-2,9.820587158E0,3.590815514E-2
3.368597724E0,-2.094929665E-2,9.811010361E0,5.745504797E-2
3.371036370E0,-2.813159302E-2,9.813405037E0,6.703144312E-2
3.373475745E0,-1.376700029E-2,9.844528198E0,5.027274787E-2
3.375915172E0,2.693267912E-2,9.825374603E0,5.745504797E-2
3.378353765E0,2.932677791E-2,9.858892441E0,6.463734806E-2
3.380792411E0,3.411497548E-2,9.858892441E0,5.506095290E-2
3.383231786E0,4.608546942E-2,9.844528198E0,4.309045523E-2
3.385671213E0,3.650907427E-2,9.894804001E0,3.830225766E-2
3.388109807E0,2.693267912E-2,9.880439758E0,2.633176744E-2
3.390548453E0,3.411497548E-2,9.892409325E0,2.154356614E-2
3.392987828E0,2.932677791E-2,9.909169197E0,3.590815514E-2
3.395427255E0,7.002645731E-2,9.887621880E0,9.573075920E-3
3.397865849E0,8.199694753E-2,9.892409325E0,3.590815514E-2
3.400304442E0,9.636153281E-2,9.890015602E0,-7.185615599E-3
3.402743870E0,1.274848282E-1,9.916350365E0,-3.112660348E-2
3.405183245E0,1.179084331E-1,9.913956642E0,-2.394430712E-2
3.407621838E0,1.418494135E-1,9.935503960E0,-2.394430712E-2
3.410060484E0,1.322730333E-1,9.930715561E0,-2.155021019E-2
3.412499859E0,1.274848282E-1,9.911562920E0,-1.915610954E-2
3.414939286E0,1.418494135E-1,9.911562920E0,-4.070299864E-2
3.417377880E0,1.179084331E-1,9.904380798E0,-9.579716250E-3
3.419816526E0,1.250907332E-1,9.921138763E0,-2.873250470E-2
3.422255901E0,1.250907332E-1,9.906774521E0,-2.873250470E-2
3.424695328E0,1.179084331E-1,9.897197723E0,-1.197381318E-2
3.427133922E0,1.250907332E-1,9.904380798E0,-3.112660348E-2
3.429572567E0,1.083320379E-1,9.892409325E0,-3.591480106E-2
3.432011942E0,1.274848282E-1,9.880439758E0,-4.549119622E-2
3.434451370E0,1.179084331E-1,9.873256683E0,-5.267349258E-2
3.436889963E0,1.107261330E-1,9.863680840E0,-8.140267432E-2
3.439328557E0,8.439104259E-2,9.846921921E0,-6.943218410E-2
3.441767984E0,6.284415722E-2,9.868468285E0,-6.703808904E-2
3.444207411E0,5.326776579E-2,9.854104996E0,-8.619087189E-2
3.446646005E0,3.411497548E-2,9.873256683E0,-8.619087189E-2
3.449084599E0,1.735628210E-2,9.875650406E0,-8.858497441E-2
3.451523974E0,3.172087297E-2,9.882833481E0,-9.337317199E-2
3.453963401E0,3.650907427E-2,9.885228157E0,-7.661448419E-2
3.456401995E0,4.369137064E-2,9.904380798E0,-9.337317199E-2
3.458840640E0,4.369137064E-2,9.882833481E0,-6.703808904E-2
3.461280015E0,2.932677791E-2,9.890015602E0,-7.661448419E-2
3.463719442E0,1.975038275E-2,9.897197723E0,-7.661448419E-2
3.466158036E0,3.890317306E-2,9.899591446E0,-8.619087189E-2
3.468596682E0,4.129726812E-2,9.899591446E0,-6.464398652E-2
3.471036057E0,4.608546942E-2,9.875650406E0,-4.788529500E-2
3.473475484E0,5.087367073E-2,9.894804001E0,-3.830889985E-2
3.475914078E0,6.045006588E-2,9.897197723E0,-2.633840591E-2
3.478352672E0,9.157334268E-2,9.885228157E0,-3.112660348E-2
3.480792099E0,9.875564277E-2,9.875650406E0,-2.394430712E-2
3.483231474E0,8.199694753E-2,9.878046036E0,-2.155021019E-2
3.485670067E0,6.523825228E-2,9.863680840E0,-9.579716250E-3
3.488108713E0,7.960285246E-2,9.849315643E0,-1.436791196E-2
3.490548088E0,8.439104259E-2,9.839739799E0,-9.579716250E-3
3.492987515E0,1.011497378E-1,9.844528198E0,4.784874618E-3
3.495426109E0,1.250907332E-1,9.839739799E0,2.633176744E-2
3.497864755E0,1.131202281E-1,9.856498718E0,9.573075920E-3
3.500304130E0,1.322730333E-1,9.832557678E0,-7.185615599E-3
3.502743557E0,1.179084331E-1,9.854104996E0,-2.155021019E-2
3.505182151E0,1.490317136E-1,9.832557678E0,-2.394430712E-2
3.507620797E0,1.538199037E-1,9.822980881E0,-2.394430712E-2
3.510060172E0,1.466376036E-1,9.818192482E0,-2.397421747E-3
3.512499599E0,1.586081088E-1,9.863680840E0,-1.197381318E-2
3.514938192E0,1.586081088E-1,9.863680840E0,-9.579716250E-3
3.517376786E0,1.418494135E-1,9.844528198E0,-9.579716250E-3
3.519816213E0,1.155143380E-1,9.846921921E0,-2.633840591E-2
3.522255640E0,1.107261330E-1,9.851710320E0,-2.873250470E-2
3.524694234E0,1.203025281E-1,9.866074562E0,-2.394430712E-2
3.527132828E0,1.179084331E-1,9.885228157E0,-3.112660348E-2
3.529572203E0,1.011497378E-1,9.868468285E0,-2.633840591E-2
3.532011630E0,1.011497378E-1,9.873256683E0,-4.788529500E-2
3.534450224E0,1.155143380E-1,9.854104996E0,-5.985578895E-2
3.536888870E0,9.875564277E-2,9.858892441E0,-6.464398652E-2
3.539328245E0,7.720874250E-2,9.844528198E0,-7.422038168E-2
3.541767672E0,4.847956449E-2,9.863680840E0,-5.027939379E-2
3.544206265E0,2.693267912E-2,9.861287117E0,-6.464398652E-2
3.546644911E0,2.214448154E-2,9.875650406E0,-7.182627916E-2
3.549084286E0,-1.855519786E-2,9.861287117E0,-5.985578895E-2
3.551523713E0,-2.334339544E-2,9.861287117E0,-6.464398652E-2
3.553962307E0,-1.616109908E-2,9.880439758E0,-6.703808904E-2
3.556400901E0,-1.137290150E-2,9.861287117E0,-4.788529500E-2
3.558840328E0,1.017398760E-2,9.851710320E0,-4.070299864E-2
3.561279755E0,5.385788158E-3,9.820587158E0,-2.633840591E-2
3.563718349E0,5.385788158E-3,9.837346077E0,-3.830889985E-2
3.566156942E0,3.411497548E-2,9.851710320E0,-2.873250470E-2
3.568596317E0,7.779888809E-3,9.832557678E0,-3.319233656E-6
3.571035745E0,2.214448154E-2,9.818192482E0,-1.436791196E-2
3.573474338E0,2.991691232E-3,9.813405037E0,9.573075920E-3
3.575912984E0,2.693267912E-2,9.803829193E0,-2.394430712E-2
3.578352359E0,4.369137064E-2,9.818192482E0,-1.676201075E-2
3.580791786E0,4.369137064E-2,9.806222916E0,-9.579716250E-3
3.583230380E0,4.369137064E-2,9.794251442E0,2.390779555E-3
3.585669026E0,6.763236225E-2,9.808616638E0,-2.397421747E-3
3.588108401E0,7.960285246E-2,9.830163956E0,9.573075920E-3
3.590547828E0,7.481466234E-2,9.813405037E0,1.675537229E-2
3.592986422E0,1.011497378E-1,9.825374603E0,-7.185615599E-3
3.595425015E0,8.678515255E-2,9.813405037E0,-2.397421747E-3
3.597864390E0,1.179084331E-1,9.825374603E0,2.872586995E-2
3.600303817E0,1.131202281E-1,9.827770233E0,9.573075920E-3
3.602742411E0,1.131202281E-1,9.832557678E0,-1.197381318E-2
3.605181057E0,1.155143380E-1,9.822980881E0,7.178977132E-3
3.607620432E0,1.226966232E-1,9.834951401E0,-2.633840591E-2
3.610059859E0,1.107261330E-1,9.858892441E0,-2.633840591E-2
3.612498453E0,1.203025281E-1,9.844528198E0,-2.155021019E-2
3.614937099E0,1.274848282E-1,9.861287117E0,-4.791516811E-3
3.617376474E0,8.917924762E-2,9.854104996E0,-2.873250470E-2
3.619815901E0,1.011497378E-1,9.856498718E0,-4.070299864E-2
3.622254495E0,1.155143380E-1,9.868468285E0,-3.591480106E-2
3.624693140E0,1.226966232E-1,9.842133522E0,-4.788529500E-2
3.627132515E0,1.083320379E-1,9.854104996E0,-4.788529500E-2
3.629571942E0,1.011497378E-1,9.851710320E0,-5.267349258E-2
3.632010536E0,8.199694753E-2,9.878046036E0,-5.985578895E-2
3.634449130E0,1.250907332E-1,9.839739799E0,-6.703808904E-2
3.636888505E0,1.514258087E-1,9.866074562E0,-5.027939379E-2
3.639327932E0,1.705785990E-1,9.866074562E0,-3.591480106E-2
3.641766526E0,1.657904088E-1,9.873256683E0,-6.224988773E-2
3.644205172E0,1.274848282E-1,9.866074562E0,-3.591480106E-2
3.646644547E0,1.131202281E-1,9.834951401E0,-6.943218410E-2
3.649083974E0,7.002645731E-2,9.830163956E0,-3.591480106E-2
3.651522567E0,8.917924762E-2,9.822980881E0,-5.746169016E-2
3.653961213E0,4.847956449E-2,9.830163956E0,-4.549119622E-2
3.656400588E0,5.805596337E-2,9.830163956E0,-2.873250470E-2
3.658840015E0,6.284415722E-2,9.820587158E0,-3.352070227E-2
3.661278609E0,7.720874250E-2,9.851710320E0,-2.155021019E-2
3.663717203E0,1.059379429E-1,9.868468285E0,-1.915610954E-2
3.666156630E0,9.396743774E-2,9.849315643E0,-3.591480106E-2
3.668596057E0,8.678515255E-2,9.849315643E0,2.390779555E-3
3.671034651E0,7.481466234E-2,9.842133522E0,-7.185615599E-3
3.673473245E0,8.678515255E-2,9.854104996E0,7.178977132E-3
3.675912672E0,7.481466234E-2,9.866074562E0,3.111996502E-2
3.678352047E0,6.523825228E-2,9.858892441E0,2.633176744E-2
3.680790640E0,7.720874250E-2,9.868468285E0,3.830225766E-2
3.683229286E0,5.087367073E-2,9.868468285E0,4.548455775E-2
3.685668661E0,3.172087297E-2,9.866074562E0,4.069636017E-2
3.688108088E0,5.326776579E-2,9.858892441E0,4.309045523E-2
3.690546682E0,4.369137064E-2,9.882833481E0,5.266685039E-2
3.692985328E0,4.369137064E-2,9.863680840E0,5.984915048E-2
3.695424703E0,4.369137064E-2,9.873256683E0,6.224325299E-2
3.697864130E0,4.369137064E-2,9.875650406E0,4.309045523E-2
3.700302724E0,5.326776579E-2,9.887621880E0,4.548455775E-2
3.702741317E0,2.214448154E-2,9.892409325E0,7.421374321E-2
3.705180692E0,3.890317306E-2,9.892409325E0,8.139604330E-2
3.707620120E0,3.890317306E-2,9.875650406E0,7.181964070E-2
3.710058713E0,5.087367073E-2,9.894804001E0,7.421374321E-2
3.712497359E0,4.129726812E-2,9.878046036E0,5.984915048E-2
3.714936734E0,3.411497548E-2,9.870862961E0,5.745504797E-2
3.717376161E0,4.608546942E-2,9.866074562E0,5.745504797E-2
3.719814755E0,3.890317306E-2,9.866074562E0,7.900194079E-2
3.722253401E0,5.326776579E-2,9.851710320E0,7.181964070E-2
3.724692776E0,7.002645731E-2,9.863680840E0,5.984915048E-2
3.727132203E0,7.242055237E-2,9.861287117E0,5.266685039E-2
3.729570797E0,8.199694753E-2,9.863680840E0,5.506095290E-2
3.732009442E0,8.678515255E-2,9.863680840E0,3.830225766E-2
3.734448817E0,1.083320379E-1,9.849315643E0,3.590815514E-2
3.736888245E0,1.203025281E-1,9.839739799E0,3.590815514E-2
3.739326838E0,1.346671283E-1,9.822980881E0,2.393767238E-2
3.741765432E0,1.155143380E-1,9.834951401E0,-2.397421747E-3
3.744204807E0,1.155143380E-1,9.849315643E0,9.573075920E-3
3.746644234E0,1.203025281E-1,9.830163956E0,-2.397421747E-3
3.749082828E0,9.157334268E-2,9.832557678E0,-3.319233656E-6
3.751521474E0,1.155143380E-1,9.827770233E0,-2.394430712E-2
3.753960849E0,1.179084331E-1,9.832557678E0,-4.309709743E-2
3.756400276E0,1.059379429E-1,9.827770233E0,-2.155021019E-2
3.758838870E0,8.678515255E-2,9.830163956E0,-3.591480106E-2
3.761277515E0,9.636153281E-2,9.842133522E0,-5.267349258E-2
3.763716890E0,7.002645731E-2,9.858892441E0,-6.943218410E-2
3.766156317E0,9.636153281E-2,9.846921921E0,-7.422038168E-2
3.768594911E0,1.011497378E-1,9.856498718E0,-7.422038168E-2
3.771033505E0,1.059379429E-1,9.866074562E0,-6.703808904E-2
3.773472932E0,9.636153281E-2,9.851710320E0,-9.097906947E-2
3.775912359E0,1.083320379E-1,9.846921921E0,-1.077377647E-1
3.778350953E0,9.636153281E-2,9.844528198E0,-1.221023574E-1
3.780789547E0,1.059379429E-1,9.870862961E0,-1.005554646E-1
3.783228922E0,1.083320379E-1,9.866074562E0,-1.197082549E-1
3.785668349E0,1.059379429E-1,9.851710320E0,-1.364669502E-1
3.788106942E0,1.131202281E-1,9.854104996E0,-1.029495597E-1
3.790545588E0,1.011497378E-1,9.861287117E0,-1.364669502E-1
3.792984963E0,1.250907332E-1,9.844528198E0,-1.244964525E-1
3.795424390E0,1.155143380E-1,9.851710320E0,-1.364669502E-1
3.797862984E0,1.083320379E-1,9.854104996E0,-1.364669502E-1
3.800301630E0,1.155143380E-1,9.880439758E0,-1.340728402E-1
3.802741005E0,1.059379429E-1,9.861287117E0,-1.340728402E-1
3.805180432E0,9.396743774E-2,9.849315643E0,-1.340728402E-1
3.807619026E0,9.396743774E-2,9.870862961E0,-1.197082549E-1
3.810057620E0,1.011497378E-1,9.870862961E0,-1.053436697E-1
3.812497047E0,1.059379429E-1,9.870862961E0,-1.029495597E-1
3.814936422E0,7.002645731E-2,9.856498718E0,-8.858497441E-2
3.817375015E0,9.636153281E-2,9.849315643E0,-5.985578895E-2
3.819813661E0,7.242055237E-2,9.868468285E0,-5.746169016E-2
3.822253036E0,7.720874250E-2,9.839739799E0,-6.464398652E-2
3.824692463E0,1.131202281E-1,9.854104996E0,-4.788529500E-2
3.827131057E0,9.157334268E-2,9.834951401E0,-4.070299864E-2
3.829569703E0,1.011497378E-1,9.844528198E0,-1.436791196E-2
3.832009078E0,1.059379429E-1,9.844528198E0,-2.155021019E-2
3.834448505E0,9.157334268E-2,9.825374603E0,-1.436791196E-2
3.836887099E0,8.917924762E-2,9.832557678E0,-1.436791196E-2
3.839325692E0,9.396743774E-2,9.839739799E0,-7.185615599E-3
3.841765120E0,9.875564277E-2,9.834951401E0,-1.436791196E-2
3.844204547E0,9.157334268E-2,9.844528198E0,9.573075920E-3
3.846643140E0,1.131202281E-1,9.849315643E0,2.393767238E-2
3.849081734E0,1.083320379E-1,9.856498718E0,2.633176744E-2
3.851521109E0,1.107261330E-1,9.851710320E0,3.830225766E-2
3.853960536E0,1.011497378E-1,9.854104996E0,3.111996502E-2
3.856399130E0,1.203025281E-1,9.858892441E0,2.633176744E-2
3.858837776E0,1.131202281E-1,9.880439758E0,2.154356614E-2
3.861277151E0,1.107261330E-1,9.880439758E0,1.436126977E-2
3.863716578E0,1.131202281E-1,9.873256683E0,1.914947107E-2
3.866155172E0,1.035438329E-1,9.901987076E0,3.351406753E-2
3.868593817E0,9.396743774E-2,9.890015602E0,1.914947107E-2
3.871033192E0,1.131202281E-1,9.892409325E0,1.196717471E-2
3.873472620E0,1.059379429E-1,9.887621880E0,9.573075920E-3
3.875911213E0,1.107261330E-1,9.885228157E0,1.436126977E-2
3.878349807E0,9.875564277E-2,9.882833481E0,1.436126977E-2
3.880789234E0,1.107261330E-1,9.870862961E0,1.675537229E-2
3.883228609E0,1.083320379E-1,9.873256683E0,-1.436791196E-2
3.885667203E0,8.199694753E-2,9.858892441E0,-3.319233656E-6
3.888105849E0,7.481466234E-2,9.887621880E0,2.390779555E-3
3.890545224E0,7.242055237E-2,9.854104996E0,-1.197381318E-2
3.892984651E0,7.002645731E-2,9.851710320E0,-1.197381318E-2
3.895423245E0,5.087367073E-2,9.863680840E0,-2.394430712E-2
3.897861890E0,4.369137064E-2,9.866074562E0,-2.633840591E-2
3.900301265E0,5.326776579E-2,9.861287117E0,-3.112660348E-2
3.902740692E0,5.326776579E-2,9.887621880E0,-4.791516811E-3
3.905179286E0,4.847956449E-2,9.890015602E0,-5.267349258E-2
3.907617880E0,6.284415722E-2,9.899591446E0,-4.549119622E-2
3.910057307E0,5.805596337E-2,9.909169197E0,-5.027939379E-2
3.912496734E0,4.608546942E-2,9.901987076E0,-2.873250470E-2
3.914935328E0,5.805596337E-2,9.887621880E0,-3.591480106E-2
3.917373922E0,6.284415722E-2,9.909169197E0,-2.873250470E-2
3.919813297E0,5.087367073E-2,9.916350365E0,-3.830889985E-2
3.922252724E0,7.242055237E-2,9.880439758E0,-4.309709743E-2
3.924691317E0,8.439104259E-2,9.887621880E0,-6.464398652E-2
3.927129963E0,8.199694753E-2,9.880439758E0,-4.309709743E-2
3.929569338E0,8.199694753E-2,9.868468285E0,-3.112660348E-2
3.932008765E0,9.157334268E-2,9.856498718E0,-3.591480106E-2
3.934447359E0,8.439104259E-2,9.858892441E0,-4.788529500E-2
3.936886005E0,9.636153281E-2,9.875650406E0,-2.633840591E-2
3.939325380E0,9.396743774E-2,9.866074562E0,-4.549119622E-2
3.941764807E0,9.875564277E-2,9.849315643E0,-3.112660348E-2
3.944203401E0,1.011497378E-1,9.854104996E0,-1.915610954E-2
3.946641995E0,1.011497378E-1,9.851710320E0,-4.549119622E-2
3.949081422E0,9.875564277E-2,9.868468285E0,-4.549119622E-2
3.951520797E0,8.917924762E-2,9.868468285E0,-2.394430712E-2
3.953959390E0,1.226966232E-1,9.856498718E0,-3.591480106E-2
3.956398036E0,7.960285246E-2,9.856498718E0,-1.676201075E-2
3.958837411E0,9.396743774E-2,9.837346077E0,-5.027939379E-2
3.961276838E0,8.917924762E-2,9.839739799E0,-3.830889985E-2
3.963715432E0,7.720874250E-2,9.830163956E0,-3.830889985E-2
3.966154078E0,7.481466234E-2,9.844528198E0,-4.549119622E-2
3.968593453E0,7.242055237E-2,9.839739799E0,-4.309709743E-2
3.971032880E0,6.523825228E-2,9.837346077E0,-7.422038168E-2
3.973471474E0,5.326776579E-2,9.820587158E0,-7.182627916E-2
3.975910120E0,5.805596337E-2,9.834951401E0,-5.506759137E-2
3.978349495E0,6.523825228E-2,9.818192482E0,-5.027939379E-2
3.980788922E0,4.369137064E-2,9.839739799E0,-5.506759137E-2
3.983227515E0,4.369137064E-2,9.839739799E0,-6.464398652E-2
3.985666109E0,5.087367073E-2,9.830163956E0,-4.070299864E-2
3.988105484E0,3.890317306E-2,9.813405037E0,-5.985578895E-2
3.990544911E0,3.411497548E-2,9.832557678E0,-2.155021019E-2
3.992983505E0,4.608546942E-2,9.832557678E0,-5.746169016E-2
3.995422151E0,2.932677791E-2,9.854104996E0,-5.985578895E-2
3.997861526E0,2.453857660E-2,9.858892441E0,-2.873250470E-2
4.000300953E0,2.214448154E-2,9.870862961E0,-1.197381318E-2
4.002739547E0,2.693267912E-2,9.885228157E0,-1.915610954E-2
4.005178192E0,3.890317306E-2,9.890015602E0,-4.549119622E-2
4.007617567E0,5.385788158E-3,9.878046036E0,-4.791516811E-3
4.010056995E0,5.385788158E-3,9.892409325E0,-3.591480106E-2
4.012495588E0,1.735628210E-2,9.899591446E0,-2.155021019E-2
4.014934182E0,1.975038275E-2,9.880439758E0,1.914947107E-2
4.017373609E0,1.735628210E-2,9.890015602E0,-3.319233656E-6
4.019813036E0,2.932677791E-2,9.854104996E0,-2.873250470E-2
4.022251630E0,3.650907427E-2,9.837346077E0,7.178977132E-3
4.024690224E0,2.453857660E-2,9.825374603E0,9.573075920E-3
4.027129599E0,2.932677791E-2,9.818192482E0,-3.319233656E-6
4.029569026E0,3.650907427E-2,9.822980881E0,1.196717471E-2
4.032007620E0,4.129726812E-2,9.813405037E0,2.872586995E-2
4.034446265E0,3.411497548E-2,9.827770233E0,4.784874618E-3
4.036885640E0,4.369137064E-2,9.811010361E0,1.675537229E-2
4.039325067E0,3.172087297E-2,9.815798759E0,2.633176744E-2
4.041763661E0,1.975038275E-2,9.808616638E0,4.069636017E-2
4.044202307E0,1.735628210E-2,9.784675598E0,4.069636017E-2
4.046641682E0,1.735628210E-2,9.794251442E0,5.745504797E-2
4.049081109E0,4.129726812E-2,9.808616638E0,4.548455775E-2
4.051519703E0,2.932677791E-2,9.808616638E0,5.027274787E-2
4.053958297E0,2.214448154E-2,9.803829193E0,2.872586995E-2
4.056397724E0,3.890317306E-2,9.801433563E0,4.309045523E-2
4.058837099E0,4.369137064E-2,9.842133522E0,4.787866026E-2
4.061275692E0,3.650907427E-2,9.844528198E0,5.027274787E-2
4.063714338E0,2.453857660E-2,9.846921921E0,5.506095290E-2
4.066153713E0,2.453857660E-2,9.863680840E0,4.069636017E-2
4.068593140E0,2.693267912E-2,9.858892441E0,4.548455775E-2
4.071031734E0,2.932677791E-2,9.866074562E0,3.351406753E-2
4.073470380E0,2.453857660E-2,9.846921921E0,3.830225766E-2
4.075909755E0,5.385788158E-3,9.839739799E0,3.351406753E-2
4.078349182E0,7.779888809E-3,9.846921921E0,3.351406753E-2
4.080787776E0,1.735628210E-2,9.866074562E0,5.266685039E-2
4.083226370E0,4.608546942E-2,9.854104996E0,1.196717471E-2
4.085665797E0,4.847956449E-2,9.854104996E0,3.111996502E-2
4.088105224E0,5.326776579E-2,9.878046036E0,3.830225766E-2
4.090543817E0,4.129726812E-2,9.846921921E0,2.633176744E-2
4.092982411E0,4.369137064E-2,9.863680840E0,3.111996502E-2
4.095421786E0,2.932677791E-2,9.851710320E0,3.590815514E-2
4.097861213E0,2.932677791E-2,9.839739799E0,2.154356614E-2
4.100299807E0,3.650907427E-2,9.846921921E0,2.872586995E-2
4.102738453E0,4.608546942E-2,9.854104996E0,1.196717471E-2
4.105177828E0,6.045006588E-2,9.830163956E0,9.573075920E-3
4.107617255E0,3.172087297E-2,9.837346077E0,1.196717471E-2
4.110055849E0,5.087367073E-2,9.842133522E0,9.573075920E-3
4.112494495E0,2.932677791E-2,9.866074562E0,7.178977132E-3
4.114933870E0,3.411497548E-2,9.882833481E0,-7.185615599E-3
4.117373297E0,3.650907427E-2,9.858892441E0,-4.791516811E-3
4.119811890E0,3.411497548E-2,9.878046036E0,-2.397421747E-3
4.122250484E0,3.172087297E-2,9.861287117E0,-1.676201075E-2
4.124689859E0,2.932677791E-2,9.890015602E0,-1.915610954E-2
4.127129286E0,1.735628210E-2,9.897197723E0,-1.915610954E-2
4.129567932E0,1.975038275E-2,9.899591446E0,-2.394430712E-2
4.132006526E0,3.172087297E-2,9.882833481E0,-1.915610954E-2
4.134445901E0,2.693267912E-2,9.873256683E0,-2.633840591E-2
4.136885328E0,-4.190606065E-3,9.887621880E0,2.390779555E-3
4.139323922E0,5.385788158E-3,9.887621880E0,-2.397421747E-3
4.141762567E0,5.975924432E-4,9.875650406E0,-9.579716250E-3
4.144201942E0,7.779888809E-3,9.887621880E0,-7.185615599E-3
4.146641370E0,5.385788158E-3,9.873256683E0,1.196717471E-2
4.149079963E0,-1.137290150E-2,9.851710320E0,3.830225766E-2
4.151518557E0,5.975924432E-4,9.846921921E0,9.573075920E-3
4.153957984E0,-1.796506345E-3,9.839739799E0,-3.319233656E-6
4.156397411E0,5.975924432E-4,9.849315643E0,-7.185615599E-3
4.158836005E0,-1.137290150E-2,9.854104996E0,7.178977132E-3
4.161274599E0,-1.796506345E-3,9.830163956E0,1.436126977E-2
4.163713974E0,5.975924432E-4,9.837346077E0,4.309045523E-2
4.166153401E0,1.017398760E-2,9.837346077E0,1.196717471E-2
4.168591995E0,2.453857660E-2,9.825374603E0,1.675537229E-2
4.171030640E0,-4.190606065E-3,9.839739799E0,2.393767238E-2
4.173470015E0,-1.796506345E-3,9.827770233E0,3.351406753E-2
4.175909442E0,2.453857660E-2,9.834951401E0,2.872586995E-2
4.178348036E0,1.017398760E-2,9.839739799E0,4.069636017E-2
4.180786682E0,2.214448154E-2,9.830163956E0,3.830225766E-2
4.183226057E0,4.369137064E-2,9.837346077E0,4.069636017E-2
4.185665484E0,3.172087297E-2,9.811010361E0,2.393767238E-2
4.188104078E0,6.284415722E-2,9.822980881E0,-2.397421747E-3
4.190542672E0,5.805596337E-2,9.834951401E0,-3.319233656E-6
4.192982099E0,3.172087297E-2,9.825374603E0,-2.397421747E-3
4.195421526E0,4.369137064E-2,9.846921921E0,-2.873250470E-2
4.197860120E0,4.129726812E-2,9.834951401E0,-3.591480106E-2
4.200298713E0,4.847956449E-2,9.866074562E0,-3.591480106E-2
4.202738088E0,4.608546942E-2,9.863680840E0,-4.070299864E-2
4.205177515E0,3.650907427E-2,9.849315643E0,-7.422038168E-2
4.207616109E0,4.847956449E-2,9.858892441E0,-4.788529500E-2
4.210054755E0,3.172087297E-2,9.858892441E0,-5.746169016E-2
4.212494130E0,4.369137064E-2,9.858892441E0,-7.900857925E-2
4.214933557E0,5.805596337E-2,9.873256683E0,-7.422038168E-2
4.217372151E0,5.326776579E-2,9.873256683E0,-6.224988773E-2
4.219810797E0,7.002645731E-2,9.892409325E0,-6.943218410E-2
4.222250172E0,5.326776579E-2,9.885228157E0,-5.746169016E-2
4.224689599E0,5.326776579E-2,9.861287117E0,-7.182627916E-2
4.227128192E0,4.847956449E-2,9.892409325E0,-5.985578895E-2
4.229566786E0,7.481466234E-2,9.885228157E0,-4.788529500E-2
4.232006161E0,6.763236225E-2,9.870862961E0,-3.112660348E-2
4.234445588E0,7.002645731E-2,9.878046036E0,-4.549119622E-2
4.236884182E0,7.960285246E-2,9.873256683E0,-3.352070227E-2
4.239322828E0,9.157334268E-2,9.887621880E0,-4.309709743E-2
4.241762203E0,8.199694753E-2,9.868468285E0,-2.873250470E-2
4.244201630E0,1.059379429E-1,9.863680840E0,-5.027939379E-2
4.246640224E0,1.035438329E-1,9.873256683E0,-4.309709743E-2
4.249078870E0,9.396743774E-2,9.856498718E0,-3.352070227E-2
4.251518245E0,9.875564277E-2,9.870862961E0,-5.506759137E-2
4.253957672E0,8.439104259E-2,9.849315643E0,-2.873250470E-2
4.256396265E0,7.002645731E-2,9.861287117E0,-3.352070227E-2
4.258834859E0,5.087367073E-2,9.844528198E0,-5.746169016E-2
4.261274286E0,6.045006588E-2,9.858892441E0,-3.830889985E-2
4.263713661E0,5.566186830E-2,9.861287117E0,-5.746169016E-2
4.266152255E0,4.129726812E-2,9.858892441E0,-1.676201075E-2
4.268590901E0,4.608546942E-2,9.868468285E0,-4.549119622E-2
4.271030276E0,3.650907427E-2,9.854104996E0,-3.352070227E-2
4.273469703E0,2.932677791E-2,9.834951401E0,-2.394430712E-2
4.275908297E0,3.890317306E-2,9.868468285E0,2.390779555E-3
4.278346942E0,1.975038275E-2,9.842133522E0,1.914947107E-2
4.280786317E0,3.172087297E-2,9.849315643E0,2.633176744E-2
4.283225745E0,1.256808639E-2,9.854104996E0,3.351406753E-2
4.285664338E0,2.214448154E-2,9.834951401E0,4.787866026E-2
4.288102932E0,3.411497548E-2,9.834951401E0,5.745504797E-2
4.290542359E0,2.214448154E-2,9.834951401E0,5.266685039E-2
4.292981786E0,1.735628210E-2,9.861287117E0,7.421374321E-2
4.295420380E0,1.496218517E-2,9.849315643E0,8.139604330E-2
4.297858974E0,2.214448154E-2,9.822980881E0,8.139604330E-2
4.300298349E0,3.650907427E-2,9.830163956E0,6.703144312E-2
4.302737776E0,1.017398760E-2,9.837346077E0,7.660783827E-2
4.305176370E0,1.496218517E-2,9.825374603E0,6.463734806E-2
4.307615015E0,2.214448154E-2,9.827770233E0,7.900194079E-2
4.310054390E0,1.017398760E-2,9.825374603E0,8.139604330E-2
4.312493817E0,7.779888809E-3,9.834951401E0,7.660783827E-2
4.314932411E0,2.991691232E-3,9.825374603E0,5.745504797E-2
4.317371057E0,2.693267912E-2,9.822980881E0,6.703144312E-2
4.319810432E0,3.650907427E-2,9.839739799E0,6.463734806E-2
4.322249859E0,4.608546942E-2,9.818192482E0,5.984915048E-2
4.324688453E0,4.369137064E-2,9.827770233E0,3.351406753E-2
4.327127047E0,4.847956449E-2,9.834951401E0,3.351406753E-2
4.329566422E0,3.890317306E-2,9.830163956E0,3.351406753E-2
4.332005849E0,3.411497548E-2,9.822980881E0,2.872586995E-2
4.334444442E0,3.172087297E-2,9.834951401E0,2.633176744E-2
4.336883088E0,3.890317306E-2,9.834951401E0,1.914947107E-2
4.339322463E0,4.129726812E-2,9.834951401E0,1.196717471E-2
4.341761890E0,3.890317306E-2,9.842133522E0,-2.155021019E-2
4.344200484E0,4.369137064E-2,9.858892441E0,-7.185615599E-3
4.346639130E0,4.369137064E-2,9.875650406E0,-3.112660348E-2
4.349078505E0,4.129726812E-2,9.870862961E0,-9.579716250E-3
4.351517932E0,6.045006588E-2,9.866074562E0,-1.915610954E-2
4.353956526E0,4.608546942E-2,9.846921921E0,-7.185615599E-3
4.356395120E0,4.847956449E-2,9.858892441E0,-2.633840591E-2
4.358834495E0,4.847956449E-2,9.873256683E0,-2.873250470E-2
4.361273922E0,6.045006588E-2,9.885228157E0,-3.112660348E-2
4.363712515E0,5.326776579E-2,9.875650406E0,-2.873250470E-2
4.366151161E0,7.002645731E-2,9.878046036E0,-2.873250470E-2
4.368590536E0,7.960285246E-2,9.882833481E0,-2.397421747E-3
4.371029963E0,8.199694753E-2,9.870862961E0,-2.397421747E-3
4.373468557E0,6.045006588E-2,9.882833481E0,-1.915610954E-2
4.375907203E0,6.284415722E-2,9.875650406E0,-2.397421747E-3
4.378346578E0,6.523825228E-2,9.875650406E0,9.573075920E-3
4.380786005E0,8.678515255E-2,9.899591446E0,1.196717471E-2
4.383224599E0,7.481466234E-2,9.878046036E0,2.393767238E-2
4.385663245E0,8.199694753E-2,9.882833481E0,7.178977132E-3
4.388102620E0,7.002645731E-2,9.899591446E0,-3.319233656E-6
4.390542047E0,6.045006588E-2,9.901987076E0,1.914947107E-2
4.392980640E0,8.678515255E-2,9.894804001E0,9.573075920E-3
4.395419234E0,8.199694753E-2,9.904380798E0,1.675537229E-2
4.397858609E0,7.002645731E-2,9.897197723E0,3.351406753E-2
4.400298036E0,7.720874250E-2,9.885228157E0,3.830225766E-2
4.402736630E0,6.763236225E-2,9.880439758E0,1.675537229E-2
4.405175276E0,7.481466234E-2,9.858892441E0,2.633176744E-2
4.407614651E0,8.917924762E-2,9.863680840E0,3.111996502E-2
4.410054078E0,7.960285246E-2,9.882833481E0,3.830225766E-2
4.412492672E0,7.720874250E-2,9.892409325E0,3.351406753E-2
4.414931317E0,8.439104259E-2,9.913956642E0,5.266685039E-2
4.417370692E0,9.157334268E-2,9.894804001E0,6.224325299E-2
4.419810120E0,9.636153281E-2,9.880439758E0,7.181964070E-2
4.422248713E0,7.720874250E-2,9.887621880E0,6.463734806E-2
4.424687307E0,5.326776579E-2,9.875650406E0,5.745504797E-2
4.427126682E0,5.566186830E-2,9.875650406E0,7.421374321E-2
4.429566109E0,6.045006588E-2,9.861287117E0,7.900194079E-2
4.432004703E0,5.326776579E-2,9.868468285E0,8.379013091E-2
4.434443349E0,4.369137064E-2,9.875650406E0,6.942553818E-2
4.436882724E0,6.284415722E-2,9.834951401E0,5.506095290E-2
4.439322151E0,8.199694753E-2,9.861287117E0,6.942553818E-2
4.441760745E0,7.960285246E-2,9.861287117E0,6.942553818E-2
4.444199390E0,7.481466234E-2,9.870862961E0,4.787866026E-2
4.446638765E0,5.566186830E-2,9.863680840E0,5.266685039E-2
4.449078192E0,8.199694753E-2,9.839739799E0,3.351406753E-2
4.451516786E0,7.002645731E-2,9.842133522E0,3.111996502E-2
4.453955380E0,8.439104259E-2,9.842133522E0,3.111996502E-2
4.456394755E0,8.439104259E-2,9.839739799E0,3.111996502E-2
4.458834182E0,6.763236225E-2,9.854104996E0,2.154356614E-2
4.461272776E0,7.002645731E-2,9.854104996E0,2.872586995E-2
4.463711422E0,7.002645731E-2,9.846921921E0,2.390779555E-3
4.466150797E0,6.284415722E-2,9.849315643E0,1.436126977E-2
4.468590224E0,7.960285246E-2,9.837346077E0,1.196717471E-2
4.471028817E0,6.045006588E-2,9.849315643E0,-2.397421747E-3
4.473467463E0,5.566186830E-2,9.851710320E0,2.390779555E-3
4.475906838E0,4.847956449E-2,9.844528198E0,-4.791516811E-3
4.478346265E0,4.847956449E-2,9.844528198E0,-2.633840591E-2
4.480784859E0,5.566186830E-2,9.830163956E0,-2.873250470E-2
4.483223453E0,5.805596337E-2,9.844528198E0,-3.319233656E-6
4.485662880E0,4.847956449E-2,9.856498718E0,-1.197381318E-2
4.488102255E0,5.087367073E-2,9.866074562E0,-1.436791196E-2
4.490540849E0,5.805596337E-2,9.849315643E0,-1.436791196E-2
4.492979495E0,5.326776579E-2,9.858892441E0,-3.591480106E-2
4.495418870E0,5.087367073E-2,9.885228157E0,-1.676201075E-2
4.497858297E0,6.284415722E-2,9.875650406E0,-7.185615599E-3
4.500296890E0,4.129726812E-2,9.858892441E0,-1.197381318E-2
4.502735536E0,6.284415722E-2,9.885228157E0,1.436126977E-2
4.505174911E0,7.720874250E-2,9.892409325E0,1.675537229E-2
4.507614338E0,5.566186830E-2,9.890015602E0,-4.791516811E-3
4.510052932E0,7.002645731E-2,9.897197723E0,4.784874618E-3
4.512491526E0,5.087367073E-2,9.887621880E0,9.573075920E-3
4.514930901E0,5.326776579E-2,9.904380798E0,-4.791516811E-3
4.517370328E0,5.087367073E-2,9.897197723E0,-7.185615599E-3
4.519808922E0,6.045006588E-2,9.885228157E0,9.573075920E-3
4.522247567E0,5.805596337E-2,9.894804001E0,9.573075920E-3
4.524686942E0,5.566186830E-2,9.911562920E0,2.872586995E-2
4.527126370E0,7.242055237E-2,9.887621880E0,2.633176744E-2
4.529564963E0,7.002645731E-2,9.897197723E0,4.548455775E-2
4.532003609E0,6.763236225E-2,9.887621880E0,3.830225766E-2
4.534442984E0,7.242055237E-2,9.882833481E0,4.069636017E-2
4.536882411E0,5.805596337E-2,9.875650406E0,4.548455775E-2
4.539321005E0,6.523825228E-2,9.894804001E0,5.027274787E-2
4.541759599E0,5.087367073E-2,9.868468285E0,5.984915048E-2
4.544198974E0,4.847956449E-2,9.873256683E0,7.421374321E-2
4.546638401E0,4.129726812E-2,9.849315643E0,7.900194079E-2
4.549076995E0,5.326776579E-2,9.863680840E0,4.787866026E-2
4.551515640E0,4.369137064E-2,9.846921921E0,7.421374321E-2
4.553955015E0,6.045006588E-2,9.839739799E0,7.181964070E-2
4.556394442E0,3.411497548E-2,9.858892441E0,5.506095290E-2
4.558833036E0,3.411497548E-2,9.834951401E0,5.266685039E-2
4.561271682E0,3.172087297E-2,9.844528198E0,5.027274787E-2
4.563711057E0,2.693267912E-2,9.846921921E0,5.745504797E-2
4.566150484E0,4.369137064E-2,9.832557678E0,5.266685039E-2
4.568589078E0,2.693267912E-2,9.832557678E0,7.181964070E-2
4.571027672E0,1.975038275E-2,9.837346077E0,6.942553818E-2
4.573467047E0,1.496218517E-2,9.832557678E0,4.787866026E-2
4.575906474E0,2.932677791E-2,9.854104996E0,3.590815514E-2
4.578345067E0,2.693267912E-2,9.863680840E0,7.660783827E-2
4.580783713E0,1.496218517E-2,9.863680840E0,5.027274787E-2
4.583223088E0,1.256808639E-2,9.875650406E0,4.787866026E-2
4.585662515E0,1.256808639E-2,9.858892441E0,4.069636017E-2
4.588101109E0,2.991691232E-3,9.878046036E0,5.027274787E-2
4.590539703E0,-4.190606065E-3,9.856498718E0,5.984915048E-2
4.592979130E0,-1.376700029E-2,9.878046036E0,3.590815514E-2
4.595418557E0,-4.190606065E-3,9.858892441E0,3.590815514E-2
4.597857151E0,1.256808639E-2,9.868468285E0,4.548455775E-2
4.600295745E0,-4.190606065E-3,9.880439758E0,2.633176744E-2
4.602735120E0,-2.094929665E-2,9.849315643E0,3.830225766E-2
4.605174547E0,5.975924432E-4,9.868468285E0,3.351406753E-2
4.607613140E0,-4.190606065E-3,9.858892441E0,1.436126977E-2
4.610051786E0,-6.584703922E-3,9.849315643E0,2.393767238E-2
4.612491161E0,1.496218517E-2,9.851710320E0,2.872586995E-2
4.614930588E0,2.214448154E-2,9.858892441E0,7.178977132E-3
4.617369182E0,-1.796506345E-3,9.854104996E0,1.436126977E-2
4.619807776E0,1.256808639E-2,9.837346077E0,1.675537229E-2
4.622247203E0,2.991691232E-3,9.837346077E0,1.196717471E-2
4.624686630E0,3.172087297E-2,9.825374603E0,-4.791516811E-3
4.627125224E0,3.890317306E-2,9.830163956E0,-4.791516811E-3
4.629563817E0,2.214448154E-2,9.820587158E0,-3.112660348E-2
4.632003192E0,1.975038275E-2,9.825374603E0,-3.591480106E-2
4.634442620E0,2.453857660E-2,9.815798759E0,-3.591480106E-2
4.636881213E0,1.256808639E-2,9.834951401E0,-2.155021019E-2
4.639319859E0,1.256808639E-2,9.820587158E0,-2.633840591E-2
4.641759234E0,1.735628210E-2,9.834951401E0,-5.027939379E-2
4.644198661E0,1.256808639E-2,9.820587158E0,-2.155021019E-2
4.646637255E0,3.650907427E-2,9.842133522E0,-9.579716250E-3
4.649075849E0,2.214448154E-2,9.811010361E0,2.390779555E-3
4.651515224E0,1.496218517E-2,9.820587158E0,-2.873250470E-2
4.653954651E0,1.496218517E-2,9.830163956E0,-9.579716250E-3
4.656393245E0,2.453857660E-2,9.825374603E0,-4.791516811E-3
4.658831890E0,2.693267912E-2,9.842133522E0,-2.633840591E-2
4.661271265E0,4.369137064E-2,9.837346077E0,-3.830889985E-2
4.663710692E0,2.453857660E-2,9.849315643E0,-2.394430712E-2
4.666149286E0,4.129726812E-2,9.844528198E0,-9.579716250E-3
4.668587880E0,2.693267912E-2,9.837346077E0,-7.185615599E-3
4.671027307E0,3.172087297E-2,9.820587158E0,-1.915610954E-2
4.673466734E0,3.172087297E-2,9.851710320E0,-1.436791196E-2
4.675905328E0,1.975038275E-2,9.856498718E0,4.784874618E-3
4.678343922E0,2.453857660E-2,9.837346077E0,-1.676201075E-2
4.680783297E0,2.453857660E-2,9.839739799E0,7.178977132E-3
4.683222724E0,2.453857660E-2,9.839739799E0,4.784874618E-3
4.685661317E0,1.735628210E-2,9.866074562E0,-1.915610954E-2
4.688099963E0,1.256808639E-2,9.822980881E0,-9.579716250E-3
4.690539338E0,1.256808639E-2,9.832557678E0,-1.676201075E-2
4.692978765E0,-1.137290150E-2,9.832557678E0,2.390779555E-3
4.695417359E0,-6.584703922E-3,9.832557678E0,-3.319233656E-6
4.697855953E0,2.991691232E-3,9.837346077E0,9.573075920E-3
4.700295380E0,-6.584703922E-3,9.856498718E0,2.393767238E-2
4.702734755E0,5.975924432E-4,9.849315643E0,-2.397421747E-3
4.705173349E0,-1.616109908E-2,9.856498718E0,7.178977132E-3
4.707611995E0,-3.052569181E-2,9.851710320E0,2.872586995E-2
4.710051370E0,-3.291978687E-2,9.837346077E0,1.196717471E-2
4.712490797E0,-2.334339544E-2,9.834951401E0,2.393767238E-2
4.714929390E0,-1.137290150E-2,9.794251442E0,4.309045523E-2
4.717368036E0,-2.334339544E-2,9.842133522E0,5.506095290E-2
4.719807411E0,-4.190606065E-3,9.811010361E0,5.984915048E-2
4.722246838E0,-2.094929665E-2,9.830163956E0,4.309045523E-2
4.724685432E0,5.975924432E-4,9.842133522E0,2.633176744E-2
4.727124026E0,-1.796506345E-3,9.846921921E0,4.069636017E-2
4.729563401E0,-1.796506345E-3,9.854104996E0,4.787866026E-2
4.732002828E0,1.256808639E-2,9.875650406E0,3.590815514E-2
4.734441422E0,2.453857660E-2,9.880439758E0,5.506095290E-2
4.736880067E0,1.496218517E-2,9.880439758E0,5.266685039E-2
4.739319442E0,2.932677791E-2,9.904380798E0,4.787866026E-2
4.741758870E0,2.932677791E-2,9.873256683E0,6.942553818E-2
4.744197463E0,3.650907427E-2,9.897197723E0,5.745504797E-2
4.746636057E0,2.932677791E-2,9.882833481E0,4.548455775E-2
4.749075432E0,3.890317306E-2,9.887621880E0,4.069636017E-2
4.751514859E0,4.129726812E-2,9.887621880E0,5.506095290E-2
4.753953453E0,6.523825228E-2,9.885228157E0,6.224325299E-2
4.756392099E0,4.369137064E-2,9.890015602E0,5.984915048E-2
4.758831474E0,5.805596337E-2,9.894804001E0,5.745504797E-2
4.761270901E0,6.763236225E-2,9.870862961E0,5.027274787E-2
4.763709495E0,7.481466234E-2,9.870862961E0,6.224325299E-2
4.766148140E0,7.481466234E-2,9.866074562E0,4.548455775E-2
4.768587515E0,9.396743774E-2,9.842133522E0,5.984915048E-2
4.771026942E0,6.284415722E-2,9.844528198E0,4.548455775E-2
4.773465536E0,5.805596337E-2,9.868468285E0,5.027274787E-2
4.775904130E0,9.875564277E-2,9.849315643E0,5.506095290E-2
4.778343505E0,7.242055237E-2,9.854104996E0,4.548455775E-2
4.780782932E0,6.763236225E-2,9.851710320E0,5.027274787E-2
4.783221526E0,5.805596337E-2,9.863680840E0,4.787866026E-2
4.785660172E0,6.763236225E-2,9.866074562E0,4.548455775E-2
4.788099547E0,7.481466234E-2,9.890015602E0,5.506095290E-2
4.790538974E0,6.045006588E-2,9.878046036E0,3.830225766E-2
4.792977567E0,6.284415722E-2,9.897197723E0,4.787866026E-2
4.795416161E0,7.720874250E-2,9.894804001E0,4.069636017E-2
4.797855588E0,6.284415722E-2,9.909169197E0,4.548455775E-2
4.800294963E0,5.805596337E-2,9.897197723E0,6.224325299E-2
4.802733557E0,6.284415722E-2,9.899591446E0,5.984915048E-2
4.805172203E0,6.284415722E-2,9.899591446E0,5.027274787E-2
4.807611578E0,8.678515255E-2,9.890015602E0,5.266685039E-2
4.810051005E0,6.045006588E-2,9.880439758E0,5.027274787E-2
4.812489599E0,5.805596337E-2,9.901987076E0,3.830225766E-2
4.814928245E0,5.805596337E-2,9.887621880E0,5.745504797E-2
4.817367620E0,6.284415722E-2,9.875650406E0,6.224325299E-2
4.819807047E0,6.045006588E-2,9.875650406E0,4.787866026E-2
4.822245640E0,4.608546942E-2,9.866074562E0,7.181964070E-2
4.824684234E0,5.087367073E-2,9.846921921E0,7.181964070E-2
4.827123609E0,5.087367073E-2,9.858892441E0,6.463734806E-2
4.829563036E0,5.087367073E-2,9.842133522E0,8.618423343E-2
4.832001630E0,6.284415722E-2,9.880439758E0,7.421374321E-2
4.834440276E0,5.566186830E-2,9.844528198E0,9.576062858E-2
4.836879651E0,7.002645731E-2,9.834951401E0,9.097243845E-2
4.839319078E0,7.481466234E-2,9.834951401E0,9.576062858E-2
4.841757672E0,6.523825228E-2,9.844528198E0,1.101252139E-1
4.844196265E0,6.523825228E-2,9.837346077E0,1.053370386E-1
4.846635640E0,8.678515255E-2,9.851710320E0,1.029429287E-1
4.849075067E0,8.439104259E-2,9.844528198E0,9.097243845E-2
4.851513661E0,8.199694753E-2,9.830163956E0,1.077311337E-1
4.853952307E0,1.011497378E-1,9.820587158E0,8.379013091E-2
4.856391682E0,1.083320379E-1,9.839739799E0,1.101252139E-1
4.858831109E0,9.875564277E-2,9.827770233E0,9.576062858E-2
4.861269703E0,1.059379429E-1,9.811010361E0,8.379013091E-2
4.863708297E0,1.274848282E-1,9.813405037E0,9.576062858E-2
4.866147672E0,1.274848282E-1,9.825374603E0,8.857834339E-2
4.868587099E0,1.203025281E-1,9.827770233E0,9.815473855E-2
4.871025692E0,1.394553035E-1,9.799039841E0,9.097243845E-2
4.873464338E0,1.705785990E-1,9.839739799E0,8.618423343E-2
4.875903713E0,1.753667891E-1,9.830163956E0,1.220957190E-1
4.878343140E0,1.753667891E-1,9.839739799E0,1.101252139E-1
4.880781734E0,1.705785990E-1,9.834951401E0,1.077311337E-1
4.883220328E0,1.705785990E-1,9.846921921E0,1.220957190E-1
4.885659755E0,1.873372942E-1,9.844528198E0,1.268839091E-1
4.888099130E0,1.849431992E-1,9.863680840E0,1.077311337E-1
4.890537724E0,1.729726940E-1,9.873256683E0,9.815473855E-2
4.892976370E0,1.849431992E-1,9.870862961E0,1.173075140E-1
4.895415745E0,1.993077844E-1,9.890015602E0,1.220957190E-1
4.897855172E0,1.801549941E-1,9.916350365E0,1.268839091E-1
4.900293765E0,1.633963138E-1,9.913956642E0,1.340662092E-1
4.902732411E0,1.897313893E-1,9.894804001E0,1.388544142E-1
4.905171786E0,1.801549941E-1,9.906774521E0,1.412484944E-1
4.907611213E0,1.729726940E-1,9.935503960E0,1.197016090E-1
4.910049807E0,1.825490892E-1,9.952262878E0,1.484307945E-1
4.912488401E0,1.586081088E-1,9.964232445E0,1.604012996E-1
4.914927776E0,1.633963138E-1,9.952262878E0,1.556130946E-1
4.917367203E0,1.586081088E-1,9.966627121E0,1.699776947E-1
4.919805797E0,1.490317136E-1,9.978597641E0,1.699776947E-1
4.922244442E0,1.466376036E-1,9.959445000E0,1.843422800E-1
4.924683817E0,1.657904088E-1,9.940291405E0,1.843422800E-1
4.927123245E0,1.298789233E-1,9.973810196E0,1.747658849E-1
4.929561838E0,1.346671283E-1,9.947473526E0,1.867363751E-1
4.932000432E0,1.538199037E-1,9.973810196E0,2.202537656E-1
4.934439807E0,1.562140137E-1,9.978597641E0,2.011009753E-1
4.936879234E0,1.538199037E-1,9.976203918E0,2.034950852E-1
4.939317828E0,1.466376036E-1,9.988173485E0,2.130714655E-1
4.941756474E0,1.705785990E-1,9.983386040E0,2.202537656E-1
4.944195849E0,1.633963138E-1,9.992961884E0,2.034950852E-1
4.946635276E0,1.586081088E-1,1.000253868E1,2.154655755E-1
4.949073870E0,1.466376036E-1,9.997750282E0,2.250419557E-1
4.951512463E0,1.514258087E-1,1.000014496E1,1.891304851E-1
4.953951838E0,1.562140137E-1,9.997750282E0,2.034950852E-1
4.956391265E0,1.538199037E-1,9.992961884E0,2.011009753E-1
4.958829859E0,1.825490892E-1,9.985779762E0,2.250419557E-1
4.961268505E0,1.777608991E-1,9.954656601E0,2.202537656E-1
4.963707880E0,2.064900696E-1,9.949869156E0,1.987068802E-1
4.966147307E0,2.112782747E-1,9.930715561E0,2.178596854E-1
4.968585901E0,2.112782747E-1,9.906774521E0,2.082832605E-1
4.971024495E0,1.969136894E-1,9.880439758E0,2.226478755E-1
4.973463870E0,1.873372942E-1,9.866074562E0,2.274360657E-1
4.975903297E0,2.088841796E-1,9.858892441E0,2.274360657E-1
4.978341890E0,1.921254992E-1,9.834951401E0,2.537711561E-1
4.980780536E0,2.136723697E-1,9.813405037E0,2.633475363E-1
4.983219911E0,2.136723697E-1,9.815798759E0,2.848944366E-1
4.985659338E0,2.136723697E-1,9.837346077E0,2.944708169E-1
4.988097932E0,2.160664797E-1,9.818192482E0,3.112295270E-1
4.990536526E0,2.112782747E-1,9.849315643E0,2.992590368E-1
4.992975953E0,2.160664797E-1,9.870862961E0,3.279882073E-1
4.995415328E0,2.040959746E-1,9.880439758E0,3.208059072E-1
4.997853922E0,2.136723697E-1,9.875650406E0,3.231999874E-1
5.000292567E0,2.304310799E-1,9.904380798E0,3.231999874E-1
5.002731942E0,2.208546698E-1,9.928321838E0,3.112295270E-1
5.005171370E0,2.352192551E-1,9.928321838E0,3.423528075E-1
5.007609963E0,2.376133800E-1,9.961838722E0,3.231999874E-1
5.010048557E0,2.208546698E-1,9.976203918E0,2.992590368E-1
5.012487984E0,2.184605747E-1,9.969020844E0,2.992590368E-1
5.014927359E0,2.088841796E-1,9.954656601E0,2.777121365E-1
5.017365953E0,1.969136894E-1,9.947473526E0,2.777121365E-1
5.019804599E0,1.610022038E-1,9.966627121E0,2.609534264E-1
5.022243974E0,1.657904088E-1,9.942686081E0,2.465888560E-1
5.024683401E0,1.514258087E-1,9.930715561E0,2.346183360E-1
