"Time (s)","Gyroscope x (rad/s)","Gyroscope y (rad/s)","Gyroscope z (rad/s)"
1.840413000E-2,-5.627591163E-2,-7.301360369E-2,2.177732810E-2
2.080709900E-2,-5.627591163E-2,-7.301360369E-2,2.177732810E-2
2.321006700E-2,-5.627591163E-2,-7.301360369E-2,2.177732810E-2
2.561303600E-2,-5.627591163E-2,-7.301360369E-2,2.177732810E-2
2.801600500E-2,-5.627591163E-2,-7.301360369E-2,2.177732810E-2
3.041897400E-2,-5.627591163E-2,-7.301360369E-2,2.177732810E-2
3.282194200E-2,-5.627591163E-2,-7.301360369E-2,2.177732810E-2
3.538282800E-2,-5.627591163E-2,-7.301360369E-2,2.177732810E-2
3.794371300E-2,-5.627591163E-2,-7.301360369E-2,2.177732810E-2
4.050459900E-2,-5.627591163E-2,-7.301360369E-2,2.177732810E-2
4.301678600E-2,-5.627591163E-2,-7.301360369E-2,2.177732810E-2
4.545579700E-2,-5.627591163E-2,-7.301360369E-2,2.177732810E-2
4.789558800E-2,-5.627591163E-2,-7.301360369E-2,2.177732810E-2
5.045647400E-2,-5.627591163E-2,-7.301360369E-2,2.177732810E-2
5.301735900E-2,-5.627591163E-2,-7.301360369E-2,2.177732810E-2
5.557824500E-2,-5.627591163E-2,-7.301360369E-2,2.177732810E-2
5.813913000E-2,-5.627591163E-2,-7.301360369E-2,2.177732810E-2
6.070001500E-2,-5.627591163E-2,-7.301360369E-2,2.177732810E-2
6.326090100E-2,-5.627591163E-2,-7.301360369E-2,2.177732810E-2
6.582178600E-2,-5.627591163E-2,-7.301360369E-2,2.177732810E-2
6.838267200E-2,-5.627591163E-2,-7.301360369E-2,2.177732810E-2
7.094355700E-2,-5.627591163E-2,-7.301360369E-2,2.177732810E-2
7.350444200E-2,-5.627591163E-2,-7.301360369E-2,2.177732810E-2
7.606532800E-2,-5.627591163E-2,-7.301360369E-2,2.177732810E-2
7.862621300E-2,-5.627591163E-2,-7.301360369E-2,2.177732810E-2
8.118709900E-2,-5.627591163E-2,-7.301360369E-2,2.177732810E-2
8.374798400E-2,-5.627591163E-2,-7.301360369E-2,2.177732810E-2
8.630887000E-2,2.367101144E-3,-1.925751008E-2,3.032943234E-2
8.886975500E-2,-3.741546068E-3,-1.437059231E-2,2.910770476E-2
9.143064000E-2,-8.628463373E-3,1.511890441E-3,3.032943234E-2
9.399152600E-2,-1.473711058E-2,3.955349326E-3,2.910770476E-2
9.655241100E-2,-1.962403022E-2,1.861610264E-2,3.399461880E-2
9.911329700E-2,-2.573267557E-2,2.228129096E-2,3.521635011E-2
1.015528800E-1,-2.328921668E-2,3.327685595E-2,3.643808141E-2
1.039918900E-1,-2.084575780E-2,3.938550130E-2,3.765981272E-2
1.064316820E-1,-1.962403022E-2,4.305069149E-2,4.010326788E-2
1.088706920E-1,-1.473711058E-2,4.182896018E-2,4.132499918E-2
1.113089220E-1,-7.406734396E-3,3.938550130E-2,3.888153657E-2
1.137479320E-1,-3.741546068E-3,2.961166576E-2,3.643808141E-2
1.161877240E-1,8.475748822E-3,3.083339706E-2,3.643808141E-2
1.186267340E-1,1.702785492E-2,3.327685595E-2,3.765981272E-2
1.210649110E-1,2.680169046E-2,2.472474799E-2,3.521635011E-2
1.235039220E-1,3.291033581E-2,1.861610264E-2,3.277289495E-2
1.259437130E-1,3.901898116E-2,1.983783208E-2,3.277289495E-2
1.283827240E-1,4.268417135E-2,1.617264375E-2,3.032943234E-2
1.308209530E-1,4.268417135E-2,8.842267096E-3,2.666424587E-2
1.332599630E-1,4.634936154E-2,2.733619884E-3,2.544251457E-2
1.356997550E-1,4.268417135E-2,2.901609987E-4,2.177732810E-2
1.381387130E-1,4.146244377E-2,1.511890441E-3,2.055559866E-2
1.405769420E-1,3.901898116E-2,-3.375027329E-3,1.933386922E-2
1.430159530E-1,3.779725358E-2,-8.261945099E-3,1.444695145E-2
1.454557450E-1,3.168860823E-2,-1.192713343E-2,1.322522201E-2
1.478947550E-1,2.802341990E-2,-1.437059231E-2,1.200349256E-2
1.503329840E-1,2.435823157E-2,-1.314886287E-2,1.200349256E-2
1.527719950E-1,2.191477269E-2,-1.070540398E-2,1.566868089E-2
1.552117860E-1,1.336266659E-2,-1.437059231E-2,1.444695145E-2
1.576507970E-1,7.254018914E-3,-1.314886287E-2,1.566868089E-2
1.600889740E-1,3.588830587E-3,-1.314886287E-2,1.689041033E-2
1.625279840E-1,-1.298087183E-3,-1.559232175E-2,1.566868089E-2
1.649677760E-1,-7.406734396E-3,-1.314886287E-2,1.566868089E-2
1.674067860E-1,-1.595884003E-2,-1.314886287E-2,1.566868089E-2
1.698450150E-1,-1.718056761E-2,-7.040215656E-3,1.689041033E-2
1.722840260E-1,-1.840229891E-2,-4.596756771E-3,1.322522201E-2
1.747238170E-1,-2.328921668E-2,-9.315684438E-4,1.200349256E-2
1.771628280E-1,-2.206748538E-2,2.901609987E-4,1.322522201E-2
1.796010050E-1,-2.451094799E-2,-9.315684438E-4,1.322522201E-2
1.820400150E-1,-2.206748538E-2,-9.315684438E-4,1.566868089E-2
1.844798070E-1,-1.473711058E-2,-4.596756771E-3,1.689041033E-2
1.869188170E-1,-7.406734396E-3,-9.483674541E-3,1.811213978E-2
1.893570470E-1,-4.963275511E-3,-1.314886287E-2,1.933386922E-2
1.917960570E-1,1.145371702E-3,-1.803578064E-2,2.055559866E-2
1.942358490E-1,1.145371702E-3,-2.292269841E-2,2.055559866E-2
1.966748590E-1,3.588830587E-3,-2.780961618E-2,2.055559866E-2
1.991130360E-1,6.032289471E-3,-3.025307506E-2,1.811213978E-2
2.015520470E-1,8.475748822E-3,-2.658788860E-2,1.689041033E-2
2.039918380E-1,8.475748822E-3,-2.414442599E-2,1.689041033E-2
2.064308490E-1,1.336266659E-2,-1.803578064E-2,1.444695145E-2
2.088690780E-1,1.458439603E-2,-1.681405120E-2,1.078176312E-2
2.113080880E-1,1.458439603E-2,-1.070540398E-2,9.560033679E-3
2.137478800E-1,1.824958436E-2,-3.375027329E-3,9.560033679E-3
2.161868900E-1,2.313650213E-2,1.511890441E-3,7.116574328E-3
2.186250670E-1,2.313650213E-2,1.511890441E-3,4.673115443E-3
2.210640780E-1,2.313650213E-2,7.620537654E-3,3.451386001E-3
2.235038700E-1,2.680169046E-2,2.733619884E-3,5.894844886E-3
2.259428800E-1,2.680169046E-2,-2.153297886E-3,4.673115443E-3
2.283811090E-1,2.802341990E-2,-3.375027329E-3,5.894844886E-3
2.308201200E-1,2.924514748E-2,-7.040215656E-3,3.451386001E-3
2.332599110E-1,2.924514748E-2,-9.483674541E-3,2.229656558E-3
2.356989220E-1,3.291033581E-2,-1.070540398E-2,3.451386001E-3
2.381370990E-1,2.924514748E-2,-1.070540398E-2,3.451386001E-3
2.405761090E-1,2.680169046E-2,-1.070540398E-2,2.229656558E-3
2.430159010E-1,2.680169046E-2,-8.261945099E-3,1.007927116E-3
2.454549110E-1,2.435823157E-2,-8.261945099E-3,-1.435531769E-3
2.478931400E-1,2.313650213E-2,-5.818486214E-3,-2.657261211E-3
2.503321510E-1,2.069304325E-2,-7.040215656E-3,-2.657261211E-3
2.527719420E-1,2.191477269E-2,-1.070540398E-2,-5.100720096E-3
2.552109530E-1,2.435823157E-2,-1.070540398E-2,-5.100720096E-3
2.576491300E-1,2.557996102E-2,-1.559232175E-2,-5.100720096E-3
2.600881400E-1,2.435823157E-2,-2.658788860E-2,-8.765907958E-3
2.625279320E-1,2.435823157E-2,-3.025307506E-2,-7.544178981E-3
2.649669420E-1,2.435823157E-2,-3.758345172E-2,-6.322449539E-3
2.674051720E-1,2.557996102E-2,-4.369209707E-2,-6.322449539E-3
2.698441820E-1,2.680169046E-2,-4.857901484E-2,-7.544178981E-3
2.722839740E-1,2.557996102E-2,-4.980074614E-2,-7.544178981E-3
2.747229840E-1,2.680169046E-2,-5.468766391E-2,-9.987637401E-3
2.771611610E-1,2.802341990E-2,-5.713111907E-2,-1.365282573E-2
2.796001720E-1,2.802341990E-2,-6.323976815E-2,-1.365282573E-2
2.820399630E-1,2.924514748E-2,-6.934841722E-2,-1.609628461E-2
2.844789740E-1,3.046687879E-2,-7.301360369E-2,-1.731801406E-2
2.869172030E-1,3.168860823E-2,-7.790051401E-2,-1.976147294E-2
2.893562130E-1,3.413206339E-2,-7.912224531E-2,-1.853974350E-2
2.917960050E-1,3.535379469E-2,-7.790051401E-2,-1.976147294E-2
2.942350150E-1,3.657552600E-2,-7.667878270E-2,-1.976147294E-2
2.966731920E-1,3.413206339E-2,-7.179187238E-2,-1.853974350E-2
2.991122030E-1,2.802341990E-2,-7.057014108E-2,-1.853974350E-2
3.015519950E-1,2.680169046E-2,-6.201804429E-2,-1.731801406E-2
3.039910050E-1,2.557996102E-2,-5.835285038E-2,-1.853974350E-2
3.064292340E-1,1.824958436E-2,-5.102247745E-2,-1.365282573E-2
3.088682450E-1,1.214093715E-2,-4.735728726E-2,-1.243109629E-2
3.113080360E-1,1.091920771E-2,-4.369209707E-2,-9.987637401E-3
3.137470470E-1,8.475748822E-3,-3.880517930E-2,-8.765907958E-3
3.161852240E-1,6.032289471E-3,-3.636172414E-2,-7.544178981E-3
3.186242340E-1,3.588830587E-3,-4.002691060E-2,-7.544178981E-3
3.210640260E-1,3.588830587E-3,-3.147480637E-2,-2.657261211E-3
3.235030360E-1,3.588830587E-3,-3.391826153E-2,-1.435531769E-3
3.259412650E-1,2.367101144E-3,-3.391826153E-2,-2.138023265E-4
3.283802760E-1,4.810560029E-3,-2.903134376E-2,3.451386001E-3
3.308200670E-1,2.367101144E-3,-3.636172414E-2,2.229656558E-3
3.332590260E-1,3.588830587E-3,-3.513999283E-2,4.673115443E-3
3.356972550E-1,6.032289471E-3,-3.636172414E-2,8.338304237E-3
3.381362650E-1,4.810560029E-3,-3.758345172E-2,8.338304237E-3
3.405760570E-1,7.254018914E-3,-4.002691060E-2,7.116574328E-3
3.430150670E-1,9.697478265E-3,-4.491382837E-2,8.338304237E-3
3.454532970E-1,9.697478265E-3,-4.491382837E-2,7.116574328E-3
3.478923070E-1,9.697478265E-3,-4.980074614E-2,4.673115443E-3
3.503320990E-1,7.254018914E-3,-5.468766391E-2,4.673115443E-3
3.527710570E-1,6.032289471E-3,-5.713111907E-2,5.894844886E-3
3.552092860E-1,3.588830587E-3,-5.713111907E-2,4.673115443E-3
3.576482970E-1,-7.635774091E-5,-6.446149945E-2,2.229656558E-3
3.600880880E-1,-2.519816626E-3,-6.323976815E-2,1.007927116E-3
3.625270990E-1,-3.741546068E-3,-6.323976815E-2,-1.435531769E-3
3.649653280E-1,-4.963275511E-3,-6.079631299E-2,-2.138023265E-4
3.674043380E-1,-6.185004953E-3,-5.957458168E-2,-2.138023265E-4
3.698441300E-1,-7.406734396E-3,-5.835285038E-2,-1.435531769E-3
3.722830880E-1,-8.628463373E-3,-5.468766391E-2,-2.657261211E-3
3.747213170E-1,-1.351538114E-2,-5.468766391E-2,-3.878990654E-3
3.771603280E-1,-1.473711058E-2,-5.346593261E-2,-3.878990654E-3
3.796001200E-1,-1.229365170E-2,-5.346593261E-2,-3.878990654E-3
3.820391300E-1,-1.351538114E-2,-4.980074614E-2,-3.878990654E-3
3.844773590E-1,-1.351538114E-2,-4.735728726E-2,-1.435531769E-3
3.869163170E-1,-1.595884003E-2,-4.735728726E-2,-2.138023265E-4
3.893561610E-1,-1.595884003E-2,-5.102247745E-2,-2.138023265E-4
3.917951200E-1,-1.595884003E-2,-4.613555968E-2,1.007927116E-3
3.942333490E-1,-1.595884003E-2,-4.857901484E-2,2.229656558E-3
3.966723590E-1,-1.962403022E-2,-4.980074614E-2,1.007927116E-3
3.991121510E-1,-1.718056761E-2,-4.369209707E-2,3.451386001E-3
4.015511610E-1,-1.595884003E-2,-4.735728726E-2,1.007927116E-3
4.039893900E-1,-1.595884003E-2,-4.491382837E-2,-2.138023265E-4
4.064283490E-1,-1.595884003E-2,-4.124864191E-2,2.229656558E-3
4.088681400E-1,-1.595884003E-2,-3.880517930E-2,4.673115443E-3
4.113071510E-1,-1.351538114E-2,-3.269653395E-2,5.894844886E-3
4.137453800E-1,-1.107192226E-2,-2.903134376E-2,3.451386001E-3
4.161843900E-1,-7.406734396E-3,-2.780961618E-2,3.451386001E-3
4.186241820E-1,-7.406734396E-3,-3.269653395E-2,4.673115443E-3
4.210631920E-1,-6.185004953E-3,-3.758345172E-2,5.894844886E-3
4.235013700E-1,-3.741546068E-3,-3.636172414E-2,2.229656558E-3
4.259403800E-1,-3.741546068E-3,-4.124864191E-2,2.229656558E-3
4.283801720E-1,-2.519816626E-3,-4.735728726E-2,-1.435531769E-3
4.308191820E-1,-7.635774091E-5,-4.735728726E-2,-2.657261211E-3
4.332574110E-1,-1.298087183E-3,-5.590939522E-2,-3.878990654E-3
4.356964220E-1,2.367101144E-3,-5.713111907E-2,-5.100720096E-3
4.381362130E-1,4.810560029E-3,-5.957458168E-2,-5.100720096E-3
4.405752240E-1,8.475748822E-3,-6.568323076E-2,-6.322449539E-3
4.430134010E-1,9.697478265E-3,-6.568323076E-2,-5.100720096E-3
4.454524110E-1,8.475748822E-3,-6.690495461E-2,-3.878990654E-3
4.478922030E-1,8.475748822E-3,-6.934841722E-2,-2.657261211E-3
4.503312130E-1,7.254018914E-3,-6.690495461E-2,-3.878990654E-3
4.527694420E-1,2.367101144E-3,-7.179187238E-2,-6.322449539E-3
4.552084530E-1,4.810560029E-3,-6.079631299E-2,-2.657261211E-3
4.576482450E-1,2.367101144E-3,-6.079631299E-2,-2.657261211E-3
4.600872550E-1,3.588830587E-3,-5.713111907E-2,-2.657261211E-3
4.625254320E-1,2.367101144E-3,-6.323976815E-2,-2.657261211E-3
4.649644420E-1,1.145371702E-3,-6.446149945E-2,-3.878990654E-3
4.674042340E-1,6.032289471E-3,-6.079631299E-2,-2.657261211E-3
4.698432450E-1,9.697478265E-3,-6.446149945E-2,-1.435531769E-3
4.722814740E-1,9.697478265E-3,-6.568323076E-2,-1.435531769E-3
4.747204840E-1,1.214093715E-2,-7.179187238E-2,-1.435531769E-3
4.771602760E-1,1.214093715E-2,-8.278743923E-2,-3.878990654E-3
4.795992860E-1,1.214093715E-2,-9.256127477E-2,-7.544178981E-3
4.820374630E-1,1.580612548E-2,-9.989164770E-2,-9.987637401E-3
4.844764740E-1,1.336266659E-2,-1.084437519E-1,-1.243109629E-2
4.869162650E-1,1.580612548E-2,-1.121089458E-1,-1.243109629E-2
4.893552760E-1,1.580612548E-2,-1.194393188E-1,-1.487455517E-2
4.917934530E-1,1.702785492E-2,-1.279914230E-1,-1.976147294E-2
4.942324630E-1,1.580612548E-2,-1.365435272E-1,-2.098320238E-2
4.966722550E-1,1.458439603E-2,-1.402087212E-1,-2.464839071E-2
4.991112650E-1,1.580612548E-2,-1.463173628E-1,-2.464839071E-2
5.015494950E-1,1.458439603E-2,-1.524260193E-1,-2.587012015E-2
5.039885050E-1,1.336266659E-2,-1.658650339E-1,-3.075703792E-2
5.064282970E-1,1.458439603E-2,-1.646433026E-1,-3.075703792E-2
5.088673070E-1,1.580612548E-2,-1.695302278E-1,-3.197876737E-2
5.113054840E-1,1.091920771E-2,-1.878561676E-1,-3.808741644E-2
5.137444950E-1,7.254018914E-3,-1.878561676E-1,-3.808741644E-2
5.161842860E-1,3.588830587E-3,-1.915213615E-1,-3.930914775E-2
5.186232970E-1,-3.741546068E-3,-1.854127049E-1,-3.808741644E-2
5.210615260E-1,-7.406734396E-3,-1.817475110E-1,-3.686568514E-2
5.235005360E-1,-4.963275511E-3,-1.658650339E-1,-3.197876737E-2
5.259403280E-1,-7.406734396E-3,-1.658650339E-1,-3.197876737E-2
5.283793380E-1,-9.850192815E-3,-1.634215713E-1,-3.075703792E-2
5.308175150E-1,-8.628463373E-3,-1.512042880E-1,-2.342666127E-2
5.332565260E-1,-7.635774091E-5,-1.524260193E-1,-1.487455517E-2
5.356963170E-1,-7.635774091E-5,-1.560911983E-1,-1.365282573E-2
5.381353280E-1,8.475748822E-3,-1.609781235E-1,-8.765907958E-3
5.405735570E-1,1.580612548E-2,-1.609781235E-1,-6.322449539E-3
5.430125670E-1,2.557996102E-2,-1.683084965E-1,-6.322449539E-3
5.454523590E-1,3.168860823E-2,-1.805257946E-1,-9.987637401E-3
5.478913700E-1,4.268417135E-2,-1.780823320E-1,-5.100720096E-3
5.503295470E-1,5.367973447E-2,-1.890778989E-1,-7.544178981E-3
5.527685570E-1,5.978838354E-2,-1.939648092E-1,-8.765907958E-3
5.552083490E-1,6.589703262E-2,-2.061821073E-1,-9.987637401E-3
5.576473590E-1,7.567086816E-2,-2.098473012E-1,-9.987637401E-3
5.600855880E-1,7.933605462E-2,-2.208428532E-1,-9.987637401E-3
5.625245470E-1,8.422297239E-2,-2.342818826E-1,-1.120936684E-2
5.649643900E-1,8.544470370E-2,-2.342818826E-1,-9.987637401E-3
5.674033490E-1,8.666643500E-2,-2.464991659E-1,-1.120936684E-2
5.698415780E-1,8.544470370E-2,-2.452774495E-1,-7.544178981E-3
5.722805880E-1,8.422297239E-2,-2.562730312E-1,-3.878990654E-3
5.747203800E-1,7.933605462E-2,-2.684903145E-1,-1.435531769E-3
5.771593900E-1,7.444913685E-2,-2.672685981E-1,3.451386001E-3
5.795975670E-1,7.200568169E-2,-2.794858813E-1,9.560033679E-3
5.820365780E-1,6.223184615E-2,-2.831510901E-1,1.444695145E-2
5.844763700E-1,5.245800689E-2,-2.892597318E-1,1.933386922E-2
5.869153800E-1,4.512763023E-2,-2.941466272E-1,2.177732810E-2
5.893536090E-1,3.657552600E-2,-2.929249108E-1,2.666424587E-2
5.917926200E-1,2.313650213E-2,-2.965900898E-1,3.155116364E-2
5.942324110E-1,1.580612548E-2,-2.941466272E-1,3.643808141E-2
5.966714220E-1,3.588830587E-3,-2.904814482E-1,4.010326788E-2
5.991095990E-1,-6.185004953E-3,-2.880379856E-1,4.376845434E-2
6.015486090E-1,-1.718056761E-2,-2.843728065E-1,4.621191695E-2
6.039884010E-1,-2.206748538E-2,-2.782641649E-1,4.865537211E-2
6.064274110E-1,-2.817613445E-2,-2.721555233E-1,4.987710342E-2
6.088656400E-1,-2.939786576E-2,-2.672685981E-1,4.865537211E-2
6.113046510E-1,-3.184132278E-2,-2.611599565E-1,4.743364826E-2
6.137444420E-1,-3.061959334E-2,-2.513861060E-1,4.865537211E-2
6.161834530E-1,-2.817613445E-2,-2.501643896E-1,4.499018565E-2
6.186216300E-1,-2.817613445E-2,-2.452774495E-1,4.254673049E-2
6.210606400E-1,-2.206748538E-2,-2.391688079E-1,4.010326788E-2
6.235004320E-1,-1.718056761E-2,-2.306167036E-1,4.132499918E-2
6.259394420E-1,-1.473711058E-2,-2.355036139E-1,3.765981272E-2
6.283776720E-1,-7.406734396E-3,-2.318384200E-1,3.643808141E-2
6.308166300E-1,-6.185004953E-3,-2.281732410E-1,3.399461880E-2
6.332564740E-1,-2.519816626E-3,-2.257297784E-1,3.277289495E-2
6.356954320E-1,2.367101144E-3,-2.257297784E-1,3.155116364E-2
6.381336610E-1,3.588830587E-3,-2.245080471E-1,2.910770476E-2
6.405726720E-1,6.032289471E-3,-2.135124803E-1,2.666424587E-2
6.430124630E-1,7.254018914E-3,-2.171776742E-1,1.689041033E-2
6.454514740E-1,8.475748822E-3,-2.074038386E-1,1.444695145E-2
6.478896510E-1,1.091920771E-2,-2.025169134E-1,9.560033679E-3
6.503286610E-1,9.697478265E-3,-2.025169134E-1,4.673115443E-3
6.527684530E-1,1.091920771E-2,-2.037386447E-1,-1.435531769E-3
6.552074630E-1,1.336266659E-2,-2.098473012E-1,-5.100720096E-3
6.576456920E-1,1.580612548E-2,-2.086255699E-1,-6.322449539E-3
6.600847030E-1,1.458439603E-2,-2.098473012E-1,-8.765907958E-3
6.625244950E-1,1.336266659E-2,-2.208428532E-1,-1.487455517E-2
6.649635050E-1,1.091920771E-2,-2.245080471E-1,-1.853974350E-2
6.674016820E-1,9.697478265E-3,-2.232863158E-1,-1.731801406E-2
6.698406920E-1,1.458439603E-2,-2.232863158E-1,-1.731801406E-2
6.722804840E-1,7.254018914E-3,-2.171776742E-1,-1.731801406E-2
6.747194950E-1,2.367101144E-3,-2.171776742E-1,-1.853974350E-2
6.771577240E-1,1.145371702E-3,-2.074038386E-1,-1.731801406E-2
6.795966820E-1,-4.963275511E-3,-2.037386447E-1,-1.731801406E-2
6.820365260E-1,-6.185004953E-3,-1.951865405E-1,-1.731801406E-2
6.844754840E-1,-4.963275511E-3,-1.805257946E-1,-1.487455517E-2
6.869137130E-1,-4.963275511E-3,-1.793040633E-1,-1.609628461E-2
6.893527240E-1,-7.406734396E-3,-1.756388694E-1,-1.609628461E-2
6.917925150E-1,-6.185004953E-3,-1.707519591E-1,-1.487455517E-2
6.942315260E-1,-8.628463373E-3,-1.670867652E-1,-1.487455517E-2
6.966697030E-1,-9.850192815E-3,-1.560911983E-1,-8.765907958E-3
6.991087130E-1,-1.107192226E-2,-1.463173628E-1,-5.100720096E-3
7.015485050E-1,-1.229365170E-2,-1.377652586E-1,-2.657261211E-3
7.039875150E-1,-1.718056761E-2,-1.255479604E-1,2.229656558E-3
7.064257450E-1,-1.962403022E-2,-1.182175875E-1,3.451386001E-3
7.088647550E-1,-2.573267557E-2,-1.035568416E-1,5.894844886E-3
7.113045470E-1,-2.817613445E-2,-8.889608085E-2,8.338304237E-3
7.137435570E-1,-3.061959334E-2,-8.156570792E-2,5.894844886E-3
7.161817340E-1,-3.184132278E-2,-6.690495461E-2,5.894844886E-3
7.186207450E-1,-2.939786576E-2,-5.713111907E-2,4.673115443E-3
7.210605360E-1,-3.061959334E-2,-4.857901484E-2,3.451386001E-3
7.234995470E-1,-2.573267557E-2,-3.880517930E-2,3.451386001E-3
7.259377760E-1,-1.962403022E-2,-2.658788860E-2,1.007927116E-3
7.283767860E-1,-1.962403022E-2,-2.780961618E-2,-1.435531769E-3
7.308165260E-1,-1.351538114E-2,-2.292269841E-2,-2.657261211E-3
7.332555360E-1,-7.406734396E-3,-1.925751008E-2,-5.100720096E-3
7.356937650E-1,-3.741546068E-3,-1.803578064E-2,-6.322449539E-3
7.381327760E-1,1.145371702E-3,-2.047923952E-2,-6.322449539E-3
7.405725670E-1,6.032289471E-3,-2.536615729E-2,-7.544178981E-3
7.430115780E-1,7.254018914E-3,-2.903134376E-2,-9.987637401E-3
7.454497550E-1,1.458439603E-2,-3.880517930E-2,-1.120936684E-2
7.478887650E-1,1.824958436E-2,-4.247036949E-2,-1.243109629E-2
7.503285570E-1,1.947131380E-2,-5.224420503E-2,-1.487455517E-2
7.527675670E-1,2.313650213E-2,-6.446149945E-2,-1.487455517E-2
7.552057970E-1,2.680169046E-2,-7.423533499E-2,-1.487455517E-2
7.576448070E-1,2.924514748E-2,-9.011781216E-2,-1.609628461E-2
7.600845990E-1,3.046687879E-2,-1.072220206E-1,-1.976147294E-2
7.625236090E-1,3.779725358E-2,-1.182175875E-1,-1.731801406E-2
7.649617860E-1,3.657552600E-2,-1.414304525E-1,-1.976147294E-2
7.674007970E-1,3.657552600E-2,-1.560911983E-1,-1.853974350E-2
7.698405880E-1,3.535379469E-2,-1.780823320E-1,-1.853974350E-2
7.722795990E-1,3.291033581E-2,-1.964082718E-1,-1.609628461E-2
7.747178280E-1,2.924514748E-2,-2.135124803E-1,-1.365282573E-2
7.771567860E-1,2.557996102E-2,-2.306167036E-1,-8.765907958E-3
7.795966300E-1,1.824958436E-2,-2.403905243E-1,-5.100720096E-3
7.820355880E-1,1.336266659E-2,-2.440557331E-1,1.007927116E-3
7.844738170E-1,4.810560029E-3,-2.526078522E-1,5.894844886E-3
7.869128280E-1,-2.519816626E-3,-2.513861060E-1,1.078176312E-2
7.893526200E-1,-1.107192226E-2,-2.538295686E-1,1.444695145E-2
7.917916300E-1,-1.718056761E-2,-2.562730312E-1,1.689041033E-2
7.942298070E-1,-1.840229891E-2,-2.526078522E-1,2.055559866E-2
7.966688170E-1,-2.084575780E-2,-2.513861060E-1,2.422078699E-2
7.991086090E-1,-2.573267557E-2,-2.501643896E-1,2.544251457E-2
8.015476200E-1,-2.328921668E-2,-2.538295686E-1,2.910770476E-2
8.039858490E-1,-2.573267557E-2,-2.636034191E-1,2.910770476E-2
8.064248590E-1,-2.206748538E-2,-2.770424187E-1,3.277289495E-2
8.088646510E-1,-1.840229891E-2,-2.929249108E-1,3.521635011E-2
8.113036610E-1,-1.351538114E-2,-3.051421940E-1,3.643808141E-2
8.137418380E-1,-4.963275511E-3,-3.136943281E-1,3.521635011E-2
8.161808490E-1,-1.298087183E-3,-3.259116113E-1,3.277289495E-2
8.186206400E-1,4.810560029E-3,-3.369071782E-1,3.399461880E-2
8.210596510E-1,9.697478265E-3,-3.503462076E-1,3.155116364E-2
8.234978280E-1,1.824958436E-2,-3.540113866E-1,3.032943234E-2
8.259368380E-1,2.313650213E-2,-3.613417745E-1,3.155116364E-2
8.283766300E-1,2.924514748E-2,-3.698938787E-1,3.277289495E-2
8.308156400E-1,3.657552600E-2,-3.784459829E-1,3.521635011E-2
8.332538700E-1,3.657552600E-2,-3.906632662E-1,3.643808141E-2
8.356928800E-1,4.268417135E-2,-3.979936540E-1,3.643808141E-2
8.381326720E-1,4.512763023E-2,-4.065457582E-1,3.643808141E-2
8.405716820E-1,4.757108912E-2,-4.126543999E-1,3.521635011E-2
8.430098590E-1,4.634936154E-2,-4.224282205E-1,3.399461880E-2
8.454488700E-1,4.512763023E-2,-4.285368919E-1,3.521635011E-2
8.478886610E-1,4.757108912E-2,-4.297586083E-1,3.277289495E-2
8.503276720E-1,4.024071246E-2,-4.370889962E-1,3.032943234E-2
8.527659010E-1,4.390589893E-2,-4.334237874E-1,3.155116364E-2
8.552049110E-1,4.268417135E-2,-4.431976378E-1,3.277289495E-2
8.576447030E-1,4.268417135E-2,-4.370889962E-1,3.765981272E-2
8.600836610E-1,4.146244377E-2,-4.358672500E-1,3.888153657E-2
8.625218900E-1,4.268417135E-2,-4.297586083E-1,4.254673049E-2
8.649609010E-1,3.901898116E-2,-4.212065041E-1,4.499018565E-2
8.674006920E-1,3.413206339E-2,-4.053240120E-1,4.865537211E-2
8.698397030E-1,2.924514748E-2,-3.918850124E-1,5.232056603E-2
8.722778800E-1,2.557996102E-2,-3.796676993E-1,5.965093896E-2
8.747168900E-1,1.824958436E-2,-3.650069535E-1,6.453786045E-2
8.771566820E-1,1.580612548E-2,-3.503462076E-1,6.942477822E-2
8.795956920E-1,8.475748822E-3,-3.405723572E-1,7.431169599E-2
8.820339220E-1,6.032289471E-3,-3.259116113E-1,7.675515860E-2
8.844729320E-1,1.145371702E-3,-3.149160445E-1,8.042034507E-2
8.869127240E-1,-2.519816626E-3,-2.978118360E-1,8.286380768E-2
8.893517340E-1,-1.298087183E-3,-2.831510901E-1,8.286380768E-2
8.917899110E-1,-3.741546068E-3,-2.758207023E-1,8.408553153E-2
8.942289220E-1,1.145371702E-3,-2.636034191E-1,8.652899414E-2
8.966687130E-1,7.254018914E-3,-2.538295686E-1,8.530726284E-2
8.991077240E-1,1.091920771E-2,-2.464991659E-1,8.042034507E-2
9.015459530E-1,1.702785492E-2,-2.440557331E-1,7.675515860E-2
9.039849110E-1,2.557996102E-2,-2.355036139E-1,7.186824083E-2
9.064247550E-1,2.924514748E-2,-2.355036139E-1,6.575959176E-2
9.088637130E-1,3.413206339E-2,-2.367253453E-1,6.087267026E-2
9.113019420E-1,4.024071246E-2,-2.306167036E-1,6.087267026E-2
9.137409530E-1,4.634936154E-2,-2.306167036E-1,5.476402119E-2
9.161807450E-1,5.123627931E-2,-2.269515097E-1,4.621191695E-2
9.186197550E-1,5.612319708E-2,-2.208428532E-1,3.765981272E-2
9.210579320E-1,5.978838354E-2,-2.086255699E-1,2.666424587E-2
9.234969420E-1,6.101011485E-2,-1.988517344E-1,1.689041033E-2
9.259367340E-1,6.345357001E-2,-1.866344362E-1,5.894844886E-3
9.283757450E-1,6.711875647E-2,-1.731954068E-1,-2.657261211E-3
9.308139740E-1,6.589703262E-2,-1.597563922E-1,-1.243109629E-2
9.332529840E-1,6.956221908E-2,-1.560911983E-1,-1.853974350E-2
9.356927760E-1,6.956221908E-2,-1.499825567E-1,-2.220493183E-2
9.381317340E-1,7.200568169E-2,-1.450956315E-1,-2.587012015E-2
9.405699630E-1,6.834048778E-2,-1.414304525E-1,-2.831357904E-2
9.430089740E-1,6.345357001E-2,-1.402087212E-1,-2.953531034E-2
9.454487650E-1,5.734492466E-2,-1.341000646E-1,-2.831357904E-2
9.478877760E-1,4.879281670E-2,-1.292131543E-1,-2.709184960E-2
9.503259530E-1,4.390589893E-2,-1.121089458E-1,-2.342666127E-2
9.527649630E-1,3.657552600E-2,-1.047785729E-1,-1.731801406E-2
9.552047550E-1,2.924514748E-2,-9.256127477E-2,-1.365282573E-2
9.576437650E-1,1.947131380E-2,-7.912224531E-2,-8.765907958E-3
9.600819950E-1,1.214093715E-2,-6.934841722E-2,-3.878990654E-3
9.625210050E-1,4.810560029E-3,-5.957458168E-2,-2.138023265E-4
9.649607970E-1,-1.298087183E-3,-4.980074614E-2,3.451386001E-3
9.673998070E-1,-1.107192226E-2,-4.369209707E-2,8.338304237E-3
9.698379840E-1,-1.107192226E-2,-3.147480637E-2,1.444695145E-2
9.722769950E-1,-1.962403022E-2,-2.658788860E-2,1.689041033E-2
9.747167860E-1,-2.451094799E-2,-1.681405120E-2,2.055559866E-2
9.771557970E-1,-2.817613445E-2,-1.070540398E-2,2.299905755E-2
9.795940260E-1,-3.428478539E-2,2.733619884E-3,2.788597718E-2
9.820329840E-1,-4.039343074E-2,1.250745542E-2,3.032943234E-2
9.844728280E-1,-4.405862093E-2,2.716821060E-2,3.399461880E-2
9.869117860E-1,-5.138899386E-2,3.816377372E-2,3.765981272E-2
9.893500150E-1,-5.383245647E-2,4.427242279E-2,4.010326788E-2
9.917890260E-1,-5.749764293E-2,5.893317983E-2,4.254673049E-2
9.942288170E-1,-5.994109809E-2,6.626355648E-2,4.376845434E-2
9.966678280E-1,-6.482802331E-2,7.237219810E-2,4.254673049E-2
9.991060050E-1,-6.482802331E-2,7.603739202E-2,4.254673049E-2
1.001545015E0,-6.360629201E-2,8.458949625E-2,4.376845434E-2
1.003984807E0,-6.116282940E-2,8.947642148E-2,4.254673049E-2
1.006423817E0,-6.482802331E-2,8.825469017E-2,4.010326788E-2
1.008862047E0,-6.116282940E-2,1.016937047E-1,4.132499918E-2
1.011301057E0,-6.238456070E-2,9.314160049E-2,3.643808141E-2
1.013740849E0,-6.116282940E-2,1.053588986E-1,3.765981272E-2
1.016179859E0,-5.871937424E-2,9.558506310E-2,3.277289495E-2
1.018618036E0,-5.383245647E-2,1.016937047E-1,3.277289495E-2
1.021057047E0,-5.016726255E-2,1.004719734E-1,2.910770476E-2
1.023496838E0,-4.772380739E-2,9.925025702E-2,2.788597718E-2
1.025935849E0,-4.161515832E-2,1.004719734E-1,2.666424587E-2
1.028374078E0,-4.039343074E-2,9.069813788E-2,2.177732810E-2
1.030813036E0,-3.917170316E-2,9.069813788E-2,2.055559866E-2
1.033252880E0,-3.428478539E-2,8.703295887E-2,1.933386922E-2
1.035691838E0,-3.672824055E-2,7.725912333E-2,1.566868089E-2
1.038130067E0,-3.794997185E-2,7.970258594E-2,1.566868089E-2
1.040569078E0,-3.794997185E-2,7.359392941E-2,1.322522201E-2
1.043008870E0,-3.917170316E-2,6.626355648E-2,9.560033679E-3
1.045447880E0,-4.283688962E-2,6.504182518E-2,7.116574328E-3
1.047886057E0,-4.528034851E-2,6.015490368E-2,5.894844886E-3
1.050325067E0,-4.283688962E-2,5.648971722E-2,5.894844886E-3
1.052764859E0,-4.528034851E-2,5.038106814E-2,4.673115443E-3
1.055203870E0,-4.650207609E-2,4.427242279E-2,3.451386001E-3
1.057642099E0,-4.405862093E-2,3.327685595E-2,2.229656558E-3
1.060081109E0,-4.528034851E-2,2.472474799E-2,2.229656558E-3
1.062520901E0,-4.528034851E-2,2.105956152E-2,1.007927116E-3
1.064959911E0,-4.161515832E-2,1.495091431E-2,1.007927116E-3
1.067398088E0,-4.039343074E-2,1.128572598E-2,2.229656558E-3
1.069837099E0,-4.039343074E-2,1.511890441E-3,3.451386001E-3
1.072276890E0,-3.550651297E-2,-1.314886287E-2,2.229656558E-3
1.074715901E0,-3.428478539E-2,-1.925751008E-2,2.229656558E-3
1.077154078E0,-3.184132278E-2,-4.124864191E-2,-1.435531769E-3
1.079593088E0,-2.695440315E-2,-5.224420503E-2,2.229656558E-3
1.082032880E0,-2.695440315E-2,-6.079631299E-2,4.673115443E-3
1.084471890E0,-2.573267557E-2,-7.057014108E-2,4.673115443E-3
1.086910120E0,-2.695440315E-2,-8.278743923E-2,4.673115443E-3
1.089349130E0,-2.939786576E-2,-9.133954346E-2,5.894844886E-3
1.091788922E0,-3.184132278E-2,-9.622645378E-2,5.894844886E-3
1.094227932E0,-3.428478539E-2,-9.989164770E-2,7.116574328E-3
1.096666109E0,-3.794997185E-2,-9.989164770E-2,9.560033679E-3
1.099105120E0,-4.283688962E-2,-1.023351103E-1,8.338304237E-3
1.101544911E0,-4.405862093E-2,-1.060002893E-1,7.116574328E-3
1.103983922E0,-4.405862093E-2,-1.084437519E-1,5.894844886E-3
1.106422099E0,-4.894553870E-2,-1.096654832E-1,5.894844886E-3
1.108861161E0,-4.894553870E-2,-1.133306772E-1,5.894844886E-3
1.111300901E0,-4.528034851E-2,-1.108872145E-1,4.673115443E-3
1.113739911E0,-4.650207609E-2,-1.145524085E-1,3.451386001E-3
1.116178140E0,-4.650207609E-2,-1.084437519E-1,5.894844886E-3
1.118617151E0,-4.894553870E-2,-1.145524085E-1,3.451386001E-3
1.121056942E0,-4.405862093E-2,-1.108872145E-1,7.116574328E-3
1.123495953E0,-4.283688962E-2,-1.133306772E-1,7.116574328E-3
1.125934130E0,-4.039343074E-2,-1.096654832E-1,8.338304237E-3
1.128373140E0,-3.917170316E-2,-1.047785729E-1,7.116574328E-3
1.130812932E0,-3.550651297E-2,-1.121089458E-1,4.673115443E-3
1.133251942E0,-3.184132278E-2,-1.047785729E-1,5.894844886E-3
1.135690172E0,-2.817613445E-2,-1.011133790E-1,5.894844886E-3
1.138129182E0,-2.328921668E-2,-9.866991639E-2,2.229656558E-3
1.140568922E0,-1.840229891E-2,-9.378300607E-2,2.229656558E-3
1.143007932E0,-9.850192815E-3,-8.400917053E-2,5.894844886E-3
1.145446161E0,-8.628463373E-3,-8.645261824E-2,1.007927116E-3
1.147885172E0,-6.185004953E-3,-8.156570792E-2,-1.435531769E-3
1.150324963E0,-2.519816626E-3,-7.667878270E-2,-2.657261211E-3
1.152763974E0,-7.635774091E-5,-6.812668592E-2,-5.100720096E-3
1.155202151E0,-7.635774091E-5,-6.201804429E-2,-6.322449539E-3
1.157641161E0,1.145371702E-3,-6.201804429E-2,-1.120936684E-2
1.160080953E0,3.588830587E-3,-4.857901484E-2,-1.243109629E-2
1.162519963E0,1.145371702E-3,-3.880517930E-2,-1.731801406E-2
1.164958192E0,-1.298087183E-3,-2.903134376E-2,-1.976147294E-2
1.167397203E0,-7.635774091E-5,-1.070540398E-2,-2.098320238E-2
1.169836995E0,-2.519816626E-3,-4.596756771E-3,-2.342666127E-2
1.172275953E0,-1.298087183E-3,8.842267096E-3,-2.464839071E-2
1.174714182E0,1.145371702E-3,2.105956152E-2,-2.587012015E-2
1.177153192E0,-1.298087183E-3,3.083339706E-2,-2.342666127E-2
1.179592984E0,-1.298087183E-3,4.549415037E-2,-2.220493183E-2
1.182031995E0,-1.298087183E-3,4.915934056E-2,-1.976147294E-2
1.184470224E0,1.145371702E-3,4.793760926E-2,-2.098320238E-2
1.186909182E0,2.367101144E-3,4.915934056E-2,-2.098320238E-2
1.189348974E0,4.810560029E-3,4.793760926E-2,-1.731801406E-2
1.191787984E0,3.588830587E-3,5.038106814E-2,-1.487455517E-2
1.194226213E0,1.091920771E-2,4.549415037E-2,-1.487455517E-2
1.196665224E0,1.336266659E-2,4.060723260E-2,-1.243109629E-2
1.199105015E0,1.824958436E-2,3.449858353E-2,-1.243109629E-2
1.201544026E0,1.824958436E-2,2.228129096E-2,-1.609628461E-2
1.203982203E0,2.069304325E-2,1.739437319E-2,-1.365282573E-2
1.206421213E0,1.824958436E-2,1.495091431E-2,-1.365282573E-2
1.208861005E0,1.702785492E-2,1.372918487E-2,-1.365282573E-2
1.211300015E0,1.702785492E-2,1.617264375E-2,-1.243109629E-2
1.213738245E0,1.214093715E-2,1.128572598E-2,-1.365282573E-2
1.216177203E0,1.091920771E-2,1.372918487E-2,-1.243109629E-2
1.218616995E0,8.475748822E-3,1.006399654E-2,-1.365282573E-2
1.221056005E0,8.475748822E-3,1.372918487E-2,-1.120936684E-2
1.223494234E0,3.588830587E-3,3.955349326E-3,-1.365282573E-2
1.225933245E0,1.145371702E-3,2.901609987E-4,-1.487455517E-2
1.228373036E0,2.367101144E-3,-4.596756771E-3,-1.609628461E-2
1.230812047E0,1.145371702E-3,-3.375027329E-3,-1.731801406E-2
1.233250224E0,-3.741546068E-3,-1.314886287E-2,-1.976147294E-2
1.235689234E0,-1.298087183E-3,-1.437059231E-2,-1.731801406E-2
1.238129026E0,-2.519816626E-3,-1.803578064E-2,-1.731801406E-2
1.240568036E0,-2.519816626E-3,-2.170096897E-2,-1.609628461E-2
1.243006265E0,-4.963275511E-3,-2.414442599E-2,-1.731801406E-2
1.245445224E0,-8.628463373E-3,-3.147480637E-2,-1.731801406E-2
1.247885067E0,-8.628463373E-3,-3.147480637E-2,-1.487455517E-2
1.250324026E0,-8.628463373E-3,-3.025307506E-2,-1.120936684E-2
1.252762255E0,-8.628463373E-3,-3.269653395E-2,-9.987637401E-3
1.255201265E0,-8.628463373E-3,-3.391826153E-2,-1.120936684E-2
1.257641057E0,-9.850192815E-3,-3.636172414E-2,-9.987637401E-3
1.260080067E0,-1.229365170E-2,-4.247036949E-2,-9.987637401E-3
1.262518245E0,-7.406734396E-3,-4.002691060E-2,-6.322449539E-3
1.264957255E0,-1.107192226E-2,-4.124864191E-2,-5.100720096E-3
1.267397047E0,-1.107192226E-2,-4.613555968E-2,-8.765907958E-3
1.269836057E0,-9.850192815E-3,-4.613555968E-2,-6.322449539E-3
1.272274286E0,-9.850192815E-3,-4.369209707E-2,-3.878990654E-3
1.274713297E0,-8.628463373E-3,-4.247036949E-2,-1.435531769E-3
1.277153088E0,-8.628463373E-3,-4.124864191E-2,-1.435531769E-3
1.279592047E0,-1.229365170E-2,-3.758345172E-2,-1.435531769E-3
1.282030276E0,-8.628463373E-3,-3.513999283E-2,1.007927116E-3
1.284469286E0,-8.628463373E-3,-3.269653395E-2,2.229656558E-3
1.286909078E0,-7.406734396E-3,-3.269653395E-2,4.673115443E-3
1.289348088E0,-7.406734396E-3,-3.269653395E-2,5.894844886E-3
1.291786265E0,-6.185004953E-3,-3.758345172E-2,5.894844886E-3
1.294225276E0,-4.963275511E-3,-4.124864191E-2,8.338304237E-3
1.296665067E0,1.145371702E-3,-5.102247745E-2,8.338304237E-3
1.299104078E0,2.367101144E-3,-5.835285038E-2,7.116574328E-3
1.301542307E0,6.032289471E-3,-6.568323076E-2,4.673115443E-3
1.303981317E0,8.475748822E-3,-7.179187238E-2,2.229656558E-3
1.306421109E0,1.214093715E-2,-6.934841722E-2,-1.435531769E-3
1.308860067E0,1.458439603E-2,-6.568323076E-2,-2.138023265E-4
1.311298297E0,1.458439603E-2,-6.690495461E-2,-3.878990654E-3
1.313737307E0,1.214093715E-2,-6.323976815E-2,-6.322449539E-3
1.316177099E0,9.697478265E-3,-5.835285038E-2,-7.544178981E-3
1.318616109E0,6.032289471E-3,-5.102247745E-2,-8.765907958E-3
1.321054286E0,7.254018914E-3,-4.124864191E-2,-7.544178981E-3
1.323493297E0,3.588830587E-3,-3.269653395E-2,-6.322449539E-3
1.325933088E0,1.145371702E-3,-2.903134376E-2,-6.322449539E-3
1.328372099E0,1.145371702E-3,-2.414442599E-2,-7.544178981E-3
1.330810328E0,1.145371702E-3,-2.780961618E-2,-7.544178981E-3
1.333249338E0,-7.635774091E-5,-2.047923952E-2,-6.322449539E-3
1.335689130E0,4.810560029E-3,-1.925751008E-2,-3.878990654E-3
1.338128088E0,4.810560029E-3,-1.925751008E-2,-5.100720096E-3
1.340566317E0,8.475748822E-3,-2.414442599E-2,-3.878990654E-3
1.343005328E0,9.697478265E-3,-2.292269841E-2,-5.100720096E-3
1.345445120E0,1.091920771E-2,-1.803578064E-2,-3.878990654E-3
1.347884130E0,1.580612548E-2,-1.314886287E-2,-2.138023265E-4
1.350322307E0,9.697478265E-3,-9.483674541E-3,1.007927116E-3
1.352761317E0,6.032289471E-3,-5.818486214E-3,3.451386001E-3
1.355201109E0,6.032289471E-3,3.955349326E-3,9.560033679E-3
1.357640120E0,2.367101144E-3,7.620537654E-3,1.322522201E-2
1.360078349E0,-2.519816626E-3,1.617264375E-2,1.689041033E-2
1.362517359E0,-4.963275511E-3,2.228129096E-2,2.055559866E-2
1.364957151E0,-6.185004953E-3,2.961166576E-2,2.055559866E-2
1.367396161E0,-1.107192226E-2,3.449858353E-2,1.933386922E-2
1.369834338E0,-1.229365170E-2,3.938550130E-2,1.689041033E-2
1.372273349E0,-1.351538114E-2,4.671587795E-2,1.689041033E-2
1.374713140E0,-1.229365170E-2,4.915934056E-2,1.566868089E-2
1.377152151E0,-1.229365170E-2,5.160279572E-2,1.322522201E-2
1.379590328E0,-8.628463373E-3,5.526798591E-2,1.322522201E-2
1.382029338E0,-6.185004953E-3,5.404625833E-2,1.078176312E-2
1.384469130E0,-3.741546068E-3,5.648971722E-2,1.322522201E-2
1.386908140E0,-2.519816626E-3,5.648971722E-2,9.560033679E-3
1.389346370E0,3.588830587E-3,6.259836257E-2,1.078176312E-2
1.391785380E0,4.810560029E-3,6.382009387E-2,9.560033679E-3
1.394225172E0,7.254018914E-3,6.870701909E-2,9.560033679E-3
1.396664182E0,9.697478265E-3,7.359392941E-2,9.560033679E-3
1.399102359E0,8.475748822E-3,7.848085463E-2,1.078176312E-2
1.401541370E0,7.254018914E-3,7.848085463E-2,9.560033679E-3
1.403981161E0,7.254018914E-3,7.725912333E-2,9.560033679E-3
1.406420172E0,3.588830587E-3,7.848085463E-2,1.200349256E-2
1.408858401E0,2.367101144E-3,7.603739202E-2,1.322522201E-2
1.411297359E0,1.145371702E-3,7.359392941E-2,1.566868089E-2
1.413737203E0,2.367101144E-3,6.870701909E-2,1.566868089E-2
1.416176161E0,3.588830587E-3,6.992873549E-2,1.689041033E-2
1.418614390E0,2.367101144E-3,6.992873549E-2,1.689041033E-2
1.421053401E0,3.588830587E-3,6.870701909E-2,1.689041033E-2
1.423493192E0,3.588830587E-3,7.237219810E-2,1.811213978E-2
1.425932203E0,6.032289471E-3,7.237219810E-2,1.933386922E-2
1.428370380E0,3.588830587E-3,7.359392941E-2,1.933386922E-2
1.430809390E0,4.810560029E-3,7.848085463E-2,2.177732810E-2
1.433249182E0,7.254018914E-3,7.481566072E-2,2.055559866E-2
1.435688192E0,7.254018914E-3,7.725912333E-2,2.177732810E-2
1.438126422E0,4.810560029E-3,7.237219810E-2,2.299905755E-2
1.440565432E0,6.032289471E-3,6.382009387E-2,2.299905755E-2
1.443005224E0,6.032289471E-3,6.137662753E-2,2.422078699E-2
1.445444182E0,7.254018914E-3,5.771144852E-2,2.544251457E-2
1.447882411E0,6.032289471E-3,5.282452703E-2,2.910770476E-2
1.450321422E0,7.254018914E-3,5.038106814E-2,3.155116364E-2
1.452761213E0,6.032289471E-3,4.549415037E-2,3.155116364E-2
1.455200224E0,9.697478265E-3,4.305069149E-2,3.277289495E-2
1.457638401E0,7.254018914E-3,4.060723260E-2,3.277289495E-2
1.460077411E0,6.032289471E-3,3.938550130E-2,3.277289495E-2
1.462517203E0,3.588830587E-3,3.572031483E-2,2.910770476E-2
1.464956213E0,4.810560029E-3,3.694204614E-2,2.910770476E-2
1.467394442E0,3.588830587E-3,2.838993818E-2,2.910770476E-2
1.469833453E0,1.145371702E-3,1.495091431E-2,2.788597718E-2
1.472273245E0,1.145371702E-3,2.733619884E-3,2.788597718E-2
1.474712203E0,4.810560029E-3,-9.483674541E-3,3.032943234E-2
1.477150432E0,7.254018914E-3,-2.292269841E-2,3.032943234E-2
1.479589442E0,1.091920771E-2,-2.903134376E-2,3.032943234E-2
1.482029234E0,1.336266659E-2,-3.880517930E-2,2.910770476E-2
1.484468245E0,1.336266659E-2,-4.247036949E-2,2.544251457E-2
1.486906422E0,1.702785492E-2,-5.224420503E-2,2.055559866E-2
1.489345432E0,1.580612548E-2,-5.590939522E-2,2.177732810E-2
1.491785224E0,1.702785492E-2,-5.713111907E-2,2.177732810E-2
1.494224234E0,1.947131380E-2,-5.713111907E-2,2.299905755E-2
1.496662463E0,1.824958436E-2,-6.568323076E-2,2.055559866E-2
1.499101474E0,1.458439603E-2,-6.568323076E-2,2.177732810E-2
1.501541265E0,1.702785492E-2,-6.568323076E-2,2.055559866E-2
1.503980276E0,1.824958436E-2,-6.690495461E-2,1.811213978E-2
1.506418453E0,1.458439603E-2,-6.690495461E-2,1.689041033E-2
1.508857463E0,1.580612548E-2,-6.323976815E-2,1.933386922E-2
1.511297255E0,1.580612548E-2,-6.079631299E-2,2.055559866E-2
1.513736265E0,1.702785492E-2,-5.713111907E-2,2.177732810E-2
1.516174442E0,1.702785492E-2,-5.957458168E-2,2.177732810E-2
1.518613453E0,1.824958436E-2,-5.102247745E-2,2.177732810E-2
1.521053245E0,2.069304325E-2,-4.980074614E-2,2.299905755E-2
1.523492255E0,1.947131380E-2,-4.613555968E-2,2.422078699E-2
1.525930484E0,2.191477269E-2,-4.735728726E-2,2.422078699E-2
1.528369495E0,2.069304325E-2,-4.857901484E-2,2.788597718E-2
1.530809286E0,2.191477269E-2,-4.735728726E-2,2.788597718E-2
1.533248297E0,2.191477269E-2,-4.124864191E-2,2.910770476E-2
1.535686474E0,2.313650213E-2,-3.758345172E-2,3.032943234E-2
1.538125484E0,2.435823157E-2,-3.269653395E-2,3.155116364E-2
1.540565276E0,2.680169046E-2,-2.170096897E-2,3.277289495E-2
1.543004286E0,3.168860823E-2,-1.314886287E-2,3.643808141E-2
1.545442515E0,3.657552600E-2,1.511890441E-3,4.010326788E-2
1.547881474E0,4.146244377E-2,1.006399654E-2,4.865537211E-2
1.550321265E0,4.879281670E-2,2.594647929E-2,5.965093896E-2
1.552760276E0,5.612319708E-2,4.793760926E-2,7.431169599E-2
1.555198505E0,6.956221908E-2,6.382009387E-2,9.141591191E-2
1.557637515E0,7.811432332E-2,7.848085463E-2,1.072983891E-1
1.560077307E0,8.666643500E-2,9.680679440E-2,1.280677766E-1
1.562516317E0,9.888372570E-2,1.053588986E-1,1.439502537E-1
1.564954495E0,1.074358299E-1,1.151327342E-1,1.549458206E-1
1.567393505E0,1.196531281E-1,1.371238679E-1,1.671631187E-1
1.569833297E0,1.282052398E-1,1.517846137E-1,1.781586856E-1
1.572272307E0,1.343138963E-1,1.652236432E-1,1.842673272E-1
1.574710536E0,1.416442543E-1,1.786626726E-1,1.891542524E-1
1.577149495E0,1.428660005E-1,1.921016872E-1,1.903759837E-1
1.579589286E0,1.501963586E-1,2.177580148E-1,1.928194463E-1
1.582028297E0,1.501963586E-1,2.409708649E-1,1.915977150E-1
1.584466526E0,1.501963586E-1,2.678489089E-1,1.915977150E-1
1.586905536E0,1.526398212E-1,3.008356094E-1,1.928194463E-1
1.589345328E0,1.489746422E-1,3.326005638E-1,1.928194463E-1
1.591784338E0,1.538615674E-1,3.753610849E-1,1.964846253E-1
1.594222515E0,1.477528960E-1,4.095695317E-1,1.952628940E-1
1.596661526E0,1.404225379E-1,4.388910234E-1,1.989280879E-1
1.599101317E0,1.392008066E-1,4.730994403E-1,2.062584609E-1
1.601540328E0,1.343138963E-1,5.048644543E-1,2.135888338E-1
1.603978557E0,1.355356127E-1,5.439597964E-1,2.343582362E-1
1.606417567E0,1.294269711E-1,5.806116462E-1,2.551276386E-1
1.608857359E0,1.306486875E-1,6.209287643E-1,2.710101306E-1
1.611296317E0,1.330921501E-1,6.649109721E-1,2.881143391E-1
1.613734547E0,1.367573440E-1,7.125584483E-1,2.978881598E-1
1.616173557E0,1.367573440E-1,7.516537905E-1,3.039968312E-1
1.618613349E0,1.355356127E-1,7.846404910E-1,3.088837266E-1
1.621052359E0,1.282052398E-1,8.164054751E-1,3.137706518E-1
1.623490536E0,1.379790753E-1,8.542790413E-1,3.284313977E-1
1.625929547E0,1.404225379E-1,8.958178759E-1,3.504225314E-1
1.628369338E0,1.477528960E-1,9.361349344E-1,3.980699778E-1
1.630808349E0,1.563050300E-1,9.911127687E-1,4.799258709E-1
1.633246578E0,1.660788506E-1,1.054642677E0,5.483427644E-1
1.635685588E0,1.819613427E-1,1.131611586E0,6.289768815E-1
1.638125380E0,1.880699843E-1,1.211024046E0,7.083892822E-1
1.640564338E0,1.978438050E-1,1.302653670E0,7.902451754E-1
1.643002567E0,2.027307302E-1,1.395505190E0,8.684358597E-1
1.645441578E0,2.039524764E-1,1.492021799E0,9.515134692E-1
1.647881370E0,2.039524764E-1,1.583651423E0,1.033369303E0
1.650320380E0,2.002872676E-1,1.670394301E0,1.115225196E0
1.652758557E0,2.027307302E-1,1.751028419E0,1.203189731E0
1.655197567E0,2.027307302E-1,1.826775670E0,1.294819474E0
1.657637359E0,2.100611180E-1,1.901301146E0,1.395001292E0
1.660076370E0,2.173914760E-1,1.972161412E0,1.501291752E0
1.662514599E0,2.259435803E-1,2.032026291E0,1.612469077E0
1.664953609E0,2.369391471E-1,2.090669155E0,1.732198596E0
1.667393401E0,2.454912513E-1,2.138316631E0,1.861701846E0
1.669832411E0,2.515999079E-1,2.167638063E0,2.002200603E0
1.672270588E0,2.552650869E-1,2.188407660E0,2.158582211E0
1.674709599E0,2.601520121E-1,2.194516182E0,2.328402758E0
1.677149390E0,2.674823701E-1,2.185964108E0,2.510440350E0
1.679588401E0,2.760344744E-1,2.178633690E0,2.699808359E0
1.682026630E0,2.931386828E-1,2.178633690E0,2.885511398E0
1.684465588E0,3.151298165E-1,2.194516182E0,3.057775021E0
1.686905380E0,3.468948007E-1,2.222615957E0,3.211713076E0
1.689344390E0,3.847683966E-1,2.239720106E0,3.353433609E0
1.691782620E0,4.189768136E-1,2.277593851E0,3.491489172E0
1.694221630E0,4.544069767E-1,2.330128193E0,3.627100945E0
1.696661422E0,4.983892739E-1,2.369223595E0,3.759047747E0
1.699100432E0,5.411497951E-1,2.421757936E0,3.879999161E0
1.701538609E0,5.790234208E-1,2.535378695E0,3.955746174E0
1.703977620E0,5.961276293E-1,2.724746704E0,3.981402636E0
1.706417411E0,6.144535542E-1,2.916558266E0,4.003393173E0
1.708856422E0,6.340012550E-1,3.068052769E0,4.019275665E0
1.711294651E0,6.596575379E-1,3.186560392E0,4.030271053E0
1.713733609E0,6.853138804E-1,3.275746822E0,4.040045261E0
1.716173401E0,7.097484469E-1,3.344163656E0,4.060814381E0
1.718612411E0,7.305178642E-1,3.393032789E0,4.084027290E0
1.721050640E0,7.537307143E-1,3.422354221E0,4.109683514E0
1.723489651E0,7.745001316E-1,3.440680265E0,4.131674767E0
1.725929442E0,7.977129817E-1,3.448010683E0,4.157330990E0
1.728368453E0,8.184823990E-1,3.417467356E0,4.190317631E0
1.730806630E0,8.404735327E-1,3.372263432E0,4.225748062E0
1.733245640E0,8.612428904E-1,3.316063881E0,4.252625942E0
1.735685432E0,8.856775165E-1,3.264751196E0,4.283169270E0
1.738124442E0,9.064468741E-1,3.196334362E0,4.311269283E0
1.740562672E0,9.357684255E-1,3.120587111E0,4.341812134E0
1.743001630E0,9.614247084E-1,3.042396545E0,4.367468834E0
1.745441474E0,9.883027673E-1,2.970314503E0,4.379685879E0
1.747880432E0,1.017624259E0,2.901897669E0,4.384572983E0
1.750318661E0,1.045724034E0,2.838367701E0,4.385794640E0
1.752757672E0,1.071380258E0,2.790720224E0,4.389459610E0
1.755197463E0,1.079932451E0,2.772394180E0,4.385794640E0
1.757636474E0,1.083597660E0,2.778502941E0,4.380907536E0
1.760074651E0,1.079932451E0,2.799272299E0,4.378464222E0
1.762513661E0,1.067715168E0,2.845697880E0,4.383351326E0
1.764953453E0,1.045724034E0,2.892123699E0,4.402898788E0
1.767392463E0,1.024954557E0,2.942214727E0,4.432220459E0
1.769830692E0,1.004185200E0,3.006966352E0,4.456655025E0
1.772269703E0,9.785289168E-1,3.076604843E0,4.467650414E0
1.774709495E0,9.516509175E-1,3.162125826E0,4.461541653E0
1.777148505E0,9.272162914E-1,3.252533913E0,4.451767921E0
1.779586682E0,8.954513669E-1,3.353937387E0,4.439550877E0
1.782025692E0,8.624646664E-1,3.457784414E0,4.427333355E0
1.784465484E0,8.294779658E-1,3.562853098E0,4.415115833E0
1.786904495E0,8.013781905E-1,3.674030542E0,4.402898788E0
1.789342672E0,7.696132064E-1,3.785207987E0,4.388237953E0
1.791781682E0,7.329612970E-1,3.903715611E0,4.371133804E0
1.794221474E0,7.011963725E-1,4.029553890E0,4.356472969E0
1.796660484E0,6.792052388E-1,4.144396782E0,4.327151775E0
1.799098713E0,6.401098967E-1,4.234804630E0,4.257513046E0
1.801537724E0,5.252673030E-1,4.259239197E0,4.143892288E0
1.803977515E0,3.969856799E-1,4.193265915E0,3.860451460E0
1.806416474E0,4.348593056E-1,4.117518425E0,3.359542370E0
1.808854703E0,5.704712868E-1,4.071093082E0,2.812207460E0
1.811293713E0,7.280744314E-1,4.014893532E0,2.344285250E0
1.813733505E0,8.074868321E-1,3.790094852E0,1.932562232E0
1.816172515E0,8.319213986E-1,3.287964106E0,1.478078842E0
1.818610692E0,8.942295909E-1,2.644112587E0,9.954956770E-1
1.821049703E0,9.553160667E-1,2.072343349E0,5.214647055E-1
1.823489495E0,1.035950184E0,1.561660409E0,6.331613660E-2
1.825928505E0,1.131245017E0,1.060751319E0,-3.765064776E-1
1.828366734E0,1.215544343E0,5.244120955E-1,-8.004465699E-1
1.830805745E0,1.313282728E0,2.961166576E-2,-1.173074007E0
1.833245536E0,1.406134129E0,-3.992153704E-1,-1.452850103E0
1.835684547E0,1.508759499E0,-7.547386289E-1,-1.643439889E0
1.838122724E0,1.610162973E0,-1.071166635E0,-1.742399931E0
1.840561734E0,1.707901359E0,-1.309403896E0,-1.748508573E0
1.843001526E0,1.797087550E0,-1.513432622E0,-1.677648306E0
1.845440536E0,1.875278234E0,-1.661261916E0,-1.542036295E0
1.847878765E0,1.935142994E0,-1.767552376E0,-1.367329001E0
1.850317724E0,1.992564321E0,-1.840856194E0,-1.176739216E0
1.852757515E0,2.025551081E0,-1.879951477E0,-9.885929227E-1
1.855196526E0,2.051207542E0,-1.888503551E0,-8.065552115E-1
1.857634755E0,2.056094408E0,-1.866512418E0,-6.379565597E-1
1.860073765E0,2.038990259E0,-1.812756419E0,-4.779100120E-1
1.862513557E0,2.001116514E0,-1.765108943E0,-3.313024938E-1
1.864952567E0,1.943695188E0,-1.700357318E0,-2.005774379E-1
1.867390745E0,1.855730653E0,-1.635605574E0,-8.206967264E-2
1.869829755E0,1.739666343E0,-1.581849456E0,2.177732810E-2
1.872269547E0,1.601610899E0,-1.518319607E0,1.170722246E-1
1.874708557E0,1.444007754E0,-1.446237564E0,2.013715506E-1
1.877146786E0,1.279074311E0,-1.387594581E0,2.710101306E-1
1.879585745E0,1.101923585E0,-1.331394911E0,3.308748603E-1
1.882025536E0,9.272162914E-1,-1.286190987E0,3.809657693E-1
1.884464547E0,7.512872815E-1,-1.250760794E0,4.151741862E-1
1.886902776E0,5.790234208E-1,-1.215330720E0,4.310566783E-1
1.889341786E0,4.116464555E-1,-1.206778526E0,4.249480367E-1
1.891781578E0,2.589302659E-1,-1.194561243E0,4.066220820E-1
1.894220588E0,1.135444790E-1,-1.186009169E0,3.773005903E-1
1.896658765E0,-1.718056761E-2,-1.188452601E0,3.430921733E-1
1.899097776E0,-1.369100362E-1,-1.183565736E0,3.113271892E-1
1.901537567E0,-2.395353168E-1,-1.184787393E0,2.771187723E-1
1.903976578E0,-3.238346875E-1,-1.173791885E0,2.453538179E-1
1.906414807E0,-3.934732676E-1,-1.162796259E0,2.087019235E-1
1.908853765E0,-4.508945346E-1,-1.146913767E0,1.732717752E-1
1.911293609E0,-4.899899065E-1,-1.116370559E0,1.390633434E-1
1.913732567E0,-5.132027268E-1,-1.071166635E0,1.097418517E-1
1.916170797E0,-5.327503681E-1,-1.021075726E0,8.042034507E-2
1.918609807E0,-5.400807858E-1,-9.514370561E-1,5.842920765E-2
1.921049599E0,-5.376372933E-1,-8.744680882E-1,4.132499918E-2
1.923488609E0,-5.217548013E-1,-7.803949118E-1,2.788597718E-2
1.925926786E0,-5.083158016E-1,-6.875435114E-1,1.689041033E-2
1.928365797E0,-4.875464141E-1,-5.885834098E-1,7.116574328E-3
1.930805588E0,-4.582249224E-1,-4.859581590E-1,3.451386001E-3
1.933244599E0,-4.301251471E-1,-3.869980872E-1,-2.138023265E-4
1.935682828E0,-3.995819092E-1,-2.880379856E-1,-2.657261211E-3
1.938121786E0,-3.665952086E-1,-1.976300031E-1,-2.657261211E-3
1.940561578E0,-3.372736871E-1,-1.121089458E-1,-6.322449539E-3
1.943000588E0,-3.042870164E-1,-3.025307506E-2,-5.100720096E-3
1.945438817E0,-2.737437785E-1,4.427242279E-2,-3.878990654E-3
1.947877828E0,-2.456439883E-1,1.163544655E-1,-1.435531769E-3
1.950317620E0,-2.187659293E-1,1.774409413E-1,1.007927116E-3
1.952756630E0,-1.943313330E-1,2.299752980E-1,8.338304237E-3
1.955194807E0,-1.686750203E-1,2.825096548E-1,1.689041033E-2
1.957633817E0,-1.479056031E-1,3.216049969E-1,2.544251457E-2
1.960073609E0,-1.308013946E-1,3.497047722E-1,3.277289495E-2
1.962512620E0,-1.149189323E-1,3.704741895E-1,3.643808141E-2
1.964950849E0,-9.781471640E-2,3.875783980E-1,4.254673049E-2
1.967389807E0,-8.193223178E-2,3.936870396E-1,4.376845434E-2
1.969829599E0,-7.215839624E-2,3.888001144E-1,4.499018565E-2
1.972268609E0,-6.116282940E-2,3.888001144E-1,4.865537211E-2
1.974706838E0,-4.528034851E-2,3.802480102E-1,4.865537211E-2
1.977145849E0,-3.550651297E-2,3.607003391E-1,4.865537211E-2
1.979585640E0,-2.451094799E-2,3.484830558E-1,4.865537211E-2
1.982024651E0,-1.107192226E-2,3.240484595E-1,4.376845434E-2
1.984462828E0,2.367101144E-3,2.996138632E-1,3.765981272E-2
1.986901838E0,1.336266659E-2,2.812879384E-1,3.399461880E-2
1.989341630E0,2.557996102E-2,2.544098794E-1,2.666424587E-2
1.991780640E0,4.146244377E-2,2.385274023E-1,2.177732810E-2
1.994218817E0,5.612319708E-2,2.202014625E-1,1.689041033E-2
1.996657828E0,7.200568169E-2,1.957668811E-1,1.078176312E-2
1.999097620E0,9.399680793E-2,1.884365082E-1,9.560033679E-3
2.001536630E0,1.049923748E-1,1.652236432E-1,5.894844886E-3
2.003974859E0,1.245400384E-1,1.566715389E-1,4.673115443E-3
2.006413870E0,1.416442543E-1,1.481194347E-1,4.673115443E-3
2.008853661E0,1.624136716E-1,1.493411660E-1,9.560033679E-3
2.011292672E0,1.782961339E-1,1.505628973E-1,1.200349256E-2
2.013730849E0,1.954003721E-1,1.627801806E-1,1.811213978E-2
2.016169859E0,2.100611180E-1,1.688888371E-1,2.299905755E-2
2.018609651E0,2.222784013E-1,1.896582395E-1,2.910770476E-2
2.021048661E0,2.357174307E-1,2.055407166E-1,3.277289495E-2
2.023486838E0,2.479347140E-1,2.263101190E-1,3.643808141E-2
2.025925849E0,2.540433705E-1,2.446360588E-1,4.010326788E-2
2.028365640E0,2.589302659E-1,2.580750585E-1,4.010326788E-2
2.030804651E0,2.625954747E-1,2.751792669E-1,4.376845434E-2
2.033242880E0,2.613737285E-1,2.800661922E-1,4.254673049E-2
2.035681890E0,2.515999079E-1,2.910617590E-1,4.499018565E-2
2.038121682E0,2.406043559E-1,2.873965800E-1,4.010326788E-2
2.040560640E0,2.259435803E-1,2.873965800E-1,3.765981272E-2
2.042998870E0,2.088393718E-1,2.812879384E-1,3.277289495E-2
2.045437880E0,1.880699843E-1,2.727358043E-1,2.910770476E-2
2.047877672E0,1.660788506E-1,2.641837001E-1,2.788597718E-2
2.050316682E0,1.404225379E-1,2.495229542E-1,2.422078699E-2
2.052754859E0,1.098792925E-1,2.311970294E-1,2.299905755E-2
2.055193870E0,8.300124109E-2,2.153145522E-1,2.299905755E-2
2.057633661E0,5.245800689E-2,1.969886124E-1,2.055559866E-2
2.060072672E0,2.680169046E-2,1.847713143E-1,2.422078699E-2
2.062510901E0,-2.519816626E-3,1.664453745E-1,2.544251457E-2
2.064949911E0,-2.817613445E-2,1.456759721E-1,2.422078699E-2
2.067389703E0,-5.016726255E-2,1.310152113E-1,2.666424587E-2
2.069828661E0,-7.093666494E-2,1.126892716E-1,2.544251457E-2
2.072266890E0,-9.048433602E-2,9.558506310E-2,2.544251457E-2
2.074705901E0,-1.051450893E-1,8.336776495E-2,2.666424587E-2
2.077145692E0,-1.136972010E-1,6.992873549E-2,2.788597718E-2
2.079584703E0,-1.246927679E-1,5.404625833E-2,2.666424587E-2
2.082022880E0,-1.320231408E-1,4.182896018E-2,2.666424587E-2
2.084461890E0,-1.369100362E-1,2.105956152E-2,2.055559866E-2
2.086901682E0,-1.405752450E-1,2.733619884E-3,1.811213978E-2
2.089340692E0,-1.369100362E-1,-8.261945099E-3,2.055559866E-2
2.091778922E0,-1.332448572E-1,-3.025307506E-2,1.811213978E-2
2.094217880E0,-1.308013946E-1,-4.124864191E-2,1.689041033E-2
2.096657672E0,-1.210275739E-1,-6.201804429E-2,1.566868089E-2
2.099096682E0,-1.112537384E-1,-7.545706630E-2,1.811213978E-2
2.101534911E0,-1.014799029E-1,-9.622645378E-2,1.689041033E-2
2.103973922E0,-9.170606732E-2,-1.169958562E-1,1.689041033E-2
2.106413713E0,-8.071050048E-2,-1.279914230E-1,1.689041033E-2
2.108852724E0,-6.971493363E-2,-1.585346609E-1,1.444695145E-2
2.111290901E0,-5.505418777E-2,-1.719736904E-1,1.566868089E-2
2.113729911E0,-4.161515832E-2,-1.939648092E-1,1.566868089E-2
2.116169703E0,-2.817613445E-2,-2.086255699E-1,1.566868089E-2
2.118608713E0,-1.229365170E-2,-2.220645845E-1,1.689041033E-2
2.121046942E0,-3.741546068E-3,-2.501643896E-1,9.560033679E-3
2.123485901E0,9.697478265E-3,-2.611599565E-1,9.560033679E-3
2.125925692E0,2.313650213E-2,-2.770424187E-1,8.338304237E-3
2.128364703E0,3.657552600E-2,-2.929249108E-1,5.894844886E-3
2.130802932E0,5.001454800E-2,-3.039204776E-1,2.229656558E-3
2.133241942E0,6.223184615E-2,-3.075856566E-1,-2.138023265E-4
2.135681734E0,7.444913685E-2,-3.088074028E-1,-1.435531769E-3
2.138120745E0,8.788815886E-2,-3.136943281E-1,-3.878990654E-3
2.140558922E0,1.037706435E-1,-3.112508655E-1,-3.878990654E-3
2.142997932E0,1.147662103E-1,-3.075856566E-1,-5.100720096E-3
2.145437724E0,1.233183220E-1,-3.051421940E-1,-8.765907958E-3
2.147876734E0,1.343138963E-1,-2.990335524E-1,-8.765907958E-3
2.150314911E0,1.477528960E-1,-2.855945230E-1,-8.765907958E-3
2.152753922E0,1.575267464E-1,-2.758207023E-1,-8.765907958E-3
2.155193713E0,1.673005670E-1,-2.623816729E-1,-1.120936684E-2
2.157632724E0,1.734092385E-1,-2.526078522E-1,-1.365282573E-2
2.160070953E0,1.795178801E-1,-2.416122705E-1,-1.487455517E-2
2.162509963E0,1.856265217E-1,-2.269515097E-1,-1.609628461E-2
2.164949755E0,1.868482381E-1,-2.171776742E-1,-1.976147294E-2
2.167388713E0,1.868482381E-1,-2.049603760E-1,-2.220493183E-2
2.169826942E0,1.856265217E-1,-1.951865405E-1,-2.464839071E-2
2.172265953E0,1.807395965E-1,-1.841909736E-1,-2.709184960E-2
2.174705745E0,1.734092385E-1,-1.805257946E-1,-2.953531034E-2
2.177144755E0,1.660788506E-1,-1.780823320E-1,-2.953531034E-2
2.179582932E0,1.575267464E-1,-1.646433026E-1,-2.831357904E-2
2.182021942E0,1.477528960E-1,-1.597563922E-1,-3.197876737E-2
2.184461734E0,1.343138963E-1,-1.597563922E-1,-3.075703792E-2
2.186900745E0,1.184313968E-1,-1.475390941E-1,-2.831357904E-2
2.189338974E0,1.062141061E-1,-1.499825567E-1,-2.709184960E-2
2.191777932E0,9.277507663E-2,-1.414304525E-1,-2.464839071E-2
2.194217776E0,8.177950978E-2,-1.304348856E-1,-2.342666127E-2
2.196656734E0,6.711875647E-2,-1.279914230E-1,-2.220493183E-2
2.199094963E0,5.367973447E-2,-1.243262291E-1,-2.342666127E-2
2.201533974E0,4.268417135E-2,-1.182175875E-1,-2.342666127E-2
2.203973765E0,3.291033581E-2,-1.108872145E-1,-2.220493183E-2
2.206412776E0,2.435823157E-2,-9.744818509E-2,-2.220493183E-2
2.208850953E0,1.824958436E-2,-9.011781216E-2,-2.342666127E-2
2.211289963E0,1.091920771E-2,-8.034397662E-2,-2.220493183E-2
2.213729755E0,4.810560029E-3,-7.179187238E-2,-2.098320238E-2
2.216168765E0,-7.635774091E-5,-6.079631299E-2,-2.098320238E-2
2.218606942E0,-2.519816626E-3,-4.980074614E-2,-1.976147294E-2
2.221045953E0,-8.628463373E-3,-4.735728726E-2,-2.220493183E-2
2.223485745E0,-1.351538114E-2,-3.147480637E-2,-1.976147294E-2
2.225924755E0,-1.473711058E-2,-2.170096897E-2,-1.976147294E-2
2.228362984E0,-1.962403022E-2,-1.925751008E-2,-2.098320238E-2
2.230801995E0,-1.840229891E-2,-1.681405120E-2,-2.220493183E-2
2.233241786E0,-2.328921668E-2,-1.314886287E-2,-2.098320238E-2
2.235680745E0,-2.328921668E-2,-1.192713343E-2,-2.342666127E-2
2.238118974E0,-2.817613445E-2,-1.437059231E-2,-2.464839071E-2
2.240557984E0,-2.939786576E-2,-1.681405120E-2,-2.342666127E-2
2.242997776E0,-2.939786576E-2,-2.170096897E-2,-2.342666127E-2
2.245436786E0,-3.184132278E-2,-3.025307506E-2,-2.464839071E-2
2.247874963E0,-3.550651297E-2,-3.513999283E-2,-2.464839071E-2
2.250313974E0,-4.039343074E-2,-4.980074614E-2,-2.587012015E-2
2.252753765E0,-4.161515832E-2,-4.857901484E-2,-2.587012015E-2
2.255192776E0,-4.405862093E-2,-6.201804429E-2,-2.464839071E-2
2.257631005E0,-4.650207609E-2,-6.934841722E-2,-2.464839071E-2
2.260069963E0,-4.528034851E-2,-8.278743923E-2,-2.953531034E-2
2.262509807E0,-4.894553870E-2,-9.256127477E-2,-2.831357904E-2
2.264948765E0,-4.650207609E-2,-9.378300607E-2,-2.831357904E-2
2.267386995E0,-4.283688962E-2,-1.035568416E-1,-2.709184960E-2
2.269826005E0,-4.161515832E-2,-1.108872145E-1,-2.709184960E-2
2.272265797E0,-4.039343074E-2,-1.145524085E-1,-2.587012015E-2
2.274704807E0,-3.794997185E-2,-1.218827814E-1,-2.587012015E-2
2.277142984E0,-3.306305408E-2,-1.218827814E-1,-2.464839071E-2
2.279581995E0,-2.695440315E-2,-1.304348856E-1,-2.464839071E-2
2.282021786E0,-2.451094799E-2,-1.341000646E-1,-2.464839071E-2
2.284460797E0,-1.595884003E-2,-1.365435272E-1,-2.342666127E-2
2.286899026E0,-1.107192226E-2,-1.463173628E-1,-2.342666127E-2
2.289337984E0,-4.963275511E-3,-1.487608254E-1,-2.342666127E-2
2.291777776E0,3.588830587E-3,-1.560911983E-1,-2.098320238E-2
2.294216786E0,7.254018914E-3,-1.524260193E-1,-1.976147294E-2
2.296655015E0,1.702785492E-2,-1.560911983E-1,-1.731801406E-2
2.299094026E0,2.191477269E-2,-1.609781235E-1,-1.487455517E-2
2.301533817E0,2.802341990E-2,-1.621998399E-1,-1.243109629E-2
2.303972828E0,3.291033581E-2,-1.707519591E-1,-1.120936684E-2
2.306411005E0,3.901898116E-2,-1.695302278E-1,-6.322449539E-3
2.308850015E0,4.268417135E-2,-1.780823320E-1,-6.322449539E-3
2.311289807E0,4.757108912E-2,-1.780823320E-1,-2.657261211E-3
2.313728817E0,5.245800689E-2,-1.829692423E-1,1.007927116E-3
2.316166995E0,6.101011485E-2,-1.793040633E-1,3.451386001E-3
2.318606005E0,6.834048778E-2,-1.731954068E-1,9.560033679E-3
2.321045797E0,6.956221908E-2,-1.780823320E-1,1.078176312E-2
2.323484807E0,7.200568169E-2,-1.817475110E-1,1.200349256E-2
2.325923036E0,6.956221908E-2,-1.890778989E-1,1.322522201E-2
2.328362047E0,7.567086816E-2,-1.890778989E-1,1.322522201E-2
2.330801838E0,7.933605462E-2,-1.915213615E-1,1.689041033E-2
2.333240797E0,7.811432332E-2,-1.951865405E-1,1.566868089E-2
2.335679026E0,8.177950978E-2,-1.927430779E-1,2.299905755E-2
2.338118036E0,8.300124109E-2,-1.915213615E-1,2.422078699E-2
2.340557828E0,8.422297239E-2,-1.915213615E-1,2.422078699E-2
2.342996838E0,8.544470370E-2,-1.951865405E-1,2.422078699E-2
2.345435015E0,8.666643500E-2,-1.890778989E-1,2.788597718E-2
2.347874026E0,8.666643500E-2,-1.915213615E-1,2.910770476E-2
2.350313817E0,8.666643500E-2,-1.890778989E-1,2.910770476E-2
2.352752828E0,8.300124109E-2,-1.939648092E-1,2.666424587E-2
2.355191057E0,8.422297239E-2,-1.951865405E-1,2.666424587E-2
2.357630067E0,8.300124109E-2,-1.902996302E-1,2.788597718E-2
2.360069859E0,8.177950978E-2,-1.878561676E-1,2.910770476E-2
2.362508817E0,8.300124109E-2,-1.878561676E-1,2.910770476E-2
2.364947047E0,8.055778593E-2,-1.890778989E-1,2.666424587E-2
2.367386057E0,7.444913685E-2,-1.915213615E-1,2.544251457E-2
2.369825849E0,7.444913685E-2,-1.902996302E-1,2.544251457E-2
2.372264859E0,7.200568169E-2,-1.890778989E-1,2.666424587E-2
2.374703036E0,6.834048778E-2,-1.976300031E-1,2.299905755E-2
2.377142047E0,7.078395039E-2,-1.939648092E-1,2.422078699E-2
2.379581838E0,6.711875647E-2,-2.086255699E-1,1.933386922E-2
2.382020849E0,6.589703262E-2,-2.074038386E-1,1.811213978E-2
2.384459078E0,6.956221908E-2,-2.074038386E-1,1.933386922E-2
2.386898036E0,6.956221908E-2,-2.122907490E-1,1.933386922E-2
2.389337880E0,6.711875647E-2,-2.147342116E-1,1.811213978E-2
2.391776838E0,6.711875647E-2,-2.269515097E-1,1.689041033E-2
2.394215067E0,7.078395039E-2,-2.245080471E-1,1.811213978E-2
2.396654078E0,7.567086816E-2,-2.367253453E-1,1.933386922E-2
2.399093870E0,7.811432332E-2,-2.440557331E-1,2.177732810E-2
2.401532880E0,8.422297239E-2,-2.562730312E-1,2.299905755E-2
2.403971057E0,9.033162147E-2,-2.648251355E-1,2.788597718E-2
2.406410067E0,9.644027054E-2,-2.745989859E-1,3.277289495E-2
2.408849859E0,1.013271809E-1,-2.904814482E-1,3.765981272E-2
2.411288870E0,1.062141061E-1,-3.100291193E-1,4.010326788E-2
2.413727099E0,1.098792925E-1,-3.295767903E-1,4.499018565E-2
2.416166057E0,1.147662103E-1,-3.503462076E-1,4.865537211E-2
2.418605849E0,1.172096655E-1,-3.784459829E-1,5.232056603E-2
2.421044859E0,1.220965758E-1,-3.979936540E-1,6.087267026E-2
2.423483088E0,1.245400384E-1,-4.212065041E-1,6.575959176E-2
2.425922099E0,1.233183220E-1,-4.431976378E-1,7.308997214E-2
2.428361890E0,1.233183220E-1,-4.603018463E-1,7.797688246E-2
2.430800901E0,1.257617921E-1,-4.725191295E-1,8.286380768E-2
2.433239078E0,1.257617921E-1,-4.847364426E-1,8.530726284E-2
2.435678088E0,1.233183220E-1,-4.981754720E-1,8.164207637E-2
2.438117880E0,1.245400384E-1,-5.030624270E-1,8.164207637E-2
2.440556890E0,1.220965758E-1,-5.018406510E-1,7.919861376E-2
2.442995120E0,1.172096655E-1,-5.079492927E-1,7.308997214E-2
2.445434078E0,1.159879416E-1,-5.091710091E-1,6.820304692E-2
2.447873870E0,1.135444790E-1,-5.189447999E-1,6.087267026E-2
2.450312880E0,1.111010164E-1,-5.336055756E-1,5.232056603E-2
2.452751109E0,1.135444790E-1,-5.421577096E-1,4.865537211E-2
2.455190120E0,1.086575612E-1,-5.617053509E-1,3.888153657E-2
2.457629911E0,1.086575612E-1,-5.824747682E-1,3.277289495E-2
2.460068922E0,1.074358299E-1,-6.069093347E-1,2.055559866E-2
2.462507099E0,1.086575612E-1,-6.252353191E-1,1.200349256E-2
2.464946109E0,1.123227477E-1,-6.447829604E-1,7.116574328E-3
2.467385901E0,1.147662103E-1,-6.570002437E-1,2.229656558E-3
2.469824911E0,1.172096655E-1,-6.643306613E-1,1.007927116E-3
2.472263088E0,1.172096655E-1,-6.618871689E-1,3.451386001E-3
2.474702099E0,1.123227477E-1,-6.667740941E-1,2.229656558E-3
2.477141890E0,9.888372570E-2,-6.741044521E-1,-1.435531769E-3
2.479580901E0,8.666643500E-2,-6.802130938E-1,-1.435531769E-3
2.482019130E0,6.834048778E-2,-6.899869442E-1,-5.100720096E-3
2.484458140E0,5.001454800E-2,-7.095346451E-1,-8.765907958E-3
2.486897932E0,2.924514748E-2,-7.327474952E-1,-1.120936684E-2
2.489336942E0,1.214093715E-2,-7.559603453E-1,-1.243109629E-2
2.491775120E0,-3.741546068E-3,-7.730645537E-1,-1.120936684E-2
2.494214130E0,-1.840229891E-2,-7.962774038E-1,-1.487455517E-2
2.496653922E0,-2.695440315E-2,-8.182685375E-1,-1.487455517E-2
2.499092932E0,-3.306305408E-2,-8.317075372E-1,-1.365282573E-2
2.501531161E0,-3.184132278E-2,-8.402596712E-1,-8.765907958E-3
2.503970120E0,-2.939786576E-2,-8.536986709E-1,-7.544178981E-3
2.506409963E0,-1.962403022E-2,-8.585855961E-1,-6.322449539E-3
2.508848922E0,-3.741546068E-3,-8.610290885E-1,-5.100720096E-3
2.511287151E0,1.702785492E-2,-8.573638797E-1,-1.435531769E-3
2.513726161E0,3.901898116E-2,-8.451465964E-1,2.229656558E-3
2.516165953E0,6.467530131E-2,-8.378162384E-1,3.451386001E-3
2.518604963E0,9.155334532E-2,-8.243771791E-1,4.673115443E-3
2.521043140E0,1.196531281E-1,-8.146033287E-1,1.007927116E-3
2.523482151E0,1.416442543E-1,-7.962774038E-1,-2.138023265E-4
2.525921942E0,1.697440296E-1,-7.718428373E-1,-1.435531769E-3
2.528360953E0,1.929569095E-1,-7.535168529E-1,-2.657261211E-3
2.530799182E0,2.161697596E-1,-7.364126444E-1,-8.765907958E-3
2.533238192E0,2.344957143E-1,-7.095346451E-1,-1.120936684E-2
2.535677984E0,2.564868033E-1,-6.887652278E-1,-1.609628461E-2
2.538116942E0,2.711475492E-1,-6.582219601E-1,-1.976147294E-2
2.540555172E0,2.858083248E-1,-6.313439608E-1,-2.220493183E-2
2.542994182E0,2.931386828E-1,-6.032441854E-1,-2.464839071E-2
2.545433974E0,2.980256081E-1,-5.690357089E-1,-2.464839071E-2
2.547872984E0,2.968038917E-1,-5.397142172E-1,-2.464839071E-2
2.550311161E0,2.968038917E-1,-5.042841434E-1,-2.342666127E-2
2.552750172E0,2.931386828E-1,-4.700756967E-1,-2.098320238E-2
2.555189963E0,2.833648622E-1,-4.358672500E-1,-2.220493183E-2
2.557628974E0,2.760344744E-1,-3.918850124E-1,-1.853974350E-2
2.560067203E0,2.638171911E-1,-3.552331030E-1,-1.853974350E-2
2.562506213E0,2.515999079E-1,-3.051421940E-1,-1.853974350E-2
2.564946005E0,2.369391471E-1,-2.611599565E-1,-1.976147294E-2
2.567385015E0,2.222784013E-1,-2.257297784E-1,-2.342666127E-2
2.569823192E0,2.063959092E-1,-1.744171381E-1,-2.464839071E-2
2.572262203E0,1.966220886E-1,-1.206610501E-1,-2.587012015E-2
2.574701995E0,1.807395965E-1,-6.812668592E-2,-2.953531034E-2
2.577141005E0,1.673005670E-1,-1.559232175E-2,-3.320049867E-2
2.579579182E0,1.599702090E-1,3.816377372E-2,-3.442222998E-2
2.582018192E0,1.477528960E-1,8.458949625E-2,-3.686568514E-2
2.584457984E0,1.404225379E-1,1.395673305E-1,-3.808741644E-2
2.586896995E0,1.343138963E-1,1.908799559E-1,-4.053087160E-2
2.589335224E0,1.269835085E-1,2.348622233E-1,-4.053087160E-2
2.591774234E0,1.208748519E-1,2.886182964E-1,-3.808741644E-2
2.594214026E0,1.135444790E-1,3.326005638E-1,-3.564395756E-2
2.596653036E0,1.049923748E-1,3.778045475E-1,-3.320049867E-2
2.599091213E0,9.399680793E-2,4.095695317E-1,-3.442222998E-2
2.601530224E0,8.177950978E-2,4.327823818E-1,-3.197876737E-2
2.603970015E0,6.956221908E-2,4.535517693E-1,-3.075703792E-2
2.606409026E0,5.367973447E-2,4.730994403E-1,-2.587012015E-2
2.608847255E0,3.535379469E-2,4.755429029E-1,-2.587012015E-2
2.611286265E0,1.947131380E-2,4.840950072E-1,-2.098320238E-2
2.613726057E0,-2.519816626E-3,4.718777239E-1,-2.098320238E-2
2.616165015E0,-1.840229891E-2,4.596604109E-1,-1.853974350E-2
2.618603245E0,-3.794997185E-2,4.437779486E-1,-1.609628461E-2
2.621042255E0,-5.749764293E-2,4.242302775E-1,-1.243109629E-2
2.623482047E0,-7.582358271E-2,3.985739648E-1,-1.120936684E-2
2.625921057E0,-9.292779863E-2,3.741393685E-1,-7.544178981E-3
2.628359234E0,-1.063668206E-1,3.509264886E-1,-2.657261211E-3
2.630798245E0,-1.234710366E-1,3.228267133E-1,-2.138023265E-4
2.633238036E0,-1.356883198E-1,2.959486842E-1,-2.138023265E-4
2.635677047E0,-1.442404240E-1,2.764010131E-1,4.673115443E-3
2.638115276E0,-1.552359909E-1,2.531881630E-1,4.673115443E-3
2.640554286E0,-1.576794535E-1,2.397491336E-1,9.560033679E-3
2.642994078E0,-1.625663787E-1,2.140928209E-1,8.338304237E-3
2.645433088E0,-1.637880951E-1,2.018755227E-1,8.338304237E-3
2.647871265E0,-1.613446325E-1,1.811061203E-1,2.229656558E-3
2.650310276E0,-1.613446325E-1,1.688888371E-1,-1.435531769E-3
2.652750067E0,-1.576794535E-1,1.493411660E-1,-3.878990654E-3
2.655189078E0,-1.491273493E-1,1.383455992E-1,-5.100720096E-3
2.657627307E0,-1.454621702E-1,1.261283010E-1,-9.987637401E-3
2.660066317E0,-1.381317824E-1,1.139110029E-1,-1.365282573E-2
2.662506109E0,-1.283579469E-1,1.004719734E-1,-1.609628461E-2
2.664945067E0,-1.210275739E-1,8.581122756E-2,-1.853974350E-2
2.667383297E0,-1.112537384E-1,7.115046680E-2,-2.098320238E-2
2.669822307E0,-1.039233655E-1,5.038106814E-2,-2.342666127E-2
2.672262099E0,-9.414952993E-2,3.816377372E-2,-2.342666127E-2
2.674701109E0,-8.559741825E-2,2.594647929E-2,-2.342666127E-2
2.677139338E0,-7.948876917E-2,5.177078769E-3,-2.220493183E-2
2.679578297E0,-7.215839624E-2,-1.192713343E-2,-2.220493183E-2
2.682018088E0,-6.116282940E-2,-1.925751008E-2,-1.731801406E-2
2.684457099E0,-5.871937424E-2,-3.758345172E-2,-1.853974350E-2
2.686895328E0,-5.261072516E-2,-5.224420503E-2,-1.976147294E-2
2.689334338E0,-4.528034851E-2,-6.323976815E-2,-1.731801406E-2
2.691774130E0,-3.917170316E-2,-8.278743923E-2,-1.976147294E-2
2.694213140E0,-3.306305408E-2,-9.622645378E-2,-1.976147294E-2
2.696651317E0,-2.817613445E-2,-1.072220206E-1,-2.098320238E-2
2.699090328E0,-2.328921668E-2,-1.133306772E-1,-2.098320238E-2
2.701530120E0,-2.206748538E-2,-1.267696917E-1,-2.342666127E-2
2.703969130E0,-1.718056761E-2,-1.389869899E-1,-2.464839071E-2
2.706407359E0,-1.229365170E-2,-1.450956315E-1,-2.587012015E-2
2.708846370E0,-9.850192815E-3,-1.560911983E-1,-2.709184960E-2
2.711286161E0,-7.406734396E-3,-1.609781235E-1,-2.709184960E-2
2.713725172E0,-3.741546068E-3,-1.695302278E-1,-2.709184960E-2
2.716163349E0,-7.635774091E-5,-1.768606007E-1,-2.587012015E-2
2.718602359E0,-1.298087183E-3,-1.854127049E-1,-2.709184960E-2
2.721042151E0,1.145371702E-3,-1.927430779E-1,-2.587012015E-2
2.723481161E0,1.145371702E-3,-1.988517344E-1,-2.831357904E-2
2.725919390E0,3.588830587E-3,-2.037386447E-1,-2.587012015E-2
2.728358401E0,7.254018914E-3,-2.086255699E-1,-2.464839071E-2
2.730798192E0,8.475748822E-3,-2.159559429E-1,-2.464839071E-2
2.733237203E0,9.697478265E-3,-2.269515097E-1,-2.709184960E-2
2.735675380E0,1.091920771E-2,-2.281732410E-1,-2.587012015E-2
2.738114390E0,1.214093715E-2,-2.355036139E-1,-2.709184960E-2
2.740554182E0,1.702785492E-2,-2.416122705E-1,-2.709184960E-2
2.742993192E0,1.580612548E-2,-2.501643896E-1,-2.831357904E-2
2.745431422E0,1.824958436E-2,-2.464991659E-1,-2.342666127E-2
2.747870432E0,2.069304325E-2,-2.489426285E-1,-2.464839071E-2
2.750310224E0,2.191477269E-2,-2.452774495E-1,-2.220493183E-2
2.752749234E0,2.069304325E-2,-2.538295686E-1,-2.342666127E-2
2.755187411E0,2.557996102E-2,-2.416122705E-1,-1.731801406E-2
2.757626422E0,3.291033581E-2,-2.281732410E-1,-1.120936684E-2
2.760066213E0,2.924514748E-2,-2.342818826E-1,-1.243109629E-2
2.762505224E0,2.680169046E-2,-2.220645845E-1,-1.731801406E-2
2.764943453E0,3.291033581E-2,-2.098473012E-1,-1.120936684E-2
2.767382463E0,3.291033581E-2,-1.902996302E-1,-7.544178981E-3
2.769822255E0,3.046687879E-2,-1.866344362E-1,-1.120936684E-2
2.772261265E0,2.924514748E-2,-1.731954068E-1,-1.365282573E-2
2.774699442E0,3.168860823E-2,-1.621998399E-1,-1.853974350E-2
2.777138453E0,2.802341990E-2,-1.499825567E-1,-1.731801406E-2
2.779578245E0,2.680169046E-2,-1.377652586E-1,-1.976147294E-2
2.782017255E0,2.802341990E-2,-1.279914230E-1,-1.976147294E-2
2.784455484E0,2.680169046E-2,-1.157741249E-1,-2.220493183E-2
2.786894495E0,2.557996102E-2,-1.108872145E-1,-2.342666127E-2
2.789334286E0,2.435823157E-2,-1.023351103E-1,-2.220493183E-2
2.791773245E0,2.435823157E-2,-9.133954346E-2,-2.098320238E-2
2.794211474E0,2.313650213E-2,-8.889608085E-2,-2.220493183E-2
2.796650484E0,2.313650213E-2,-8.278743923E-2,-2.098320238E-2
2.799090276E0,2.557996102E-2,-7.667878270E-2,-2.220493183E-2
2.801529286E0,2.435823157E-2,-7.667878270E-2,-2.464839071E-2
2.803967515E0,2.924514748E-2,-7.301360369E-2,-2.342666127E-2
2.806406474E0,3.046687879E-2,-7.057014108E-2,-2.464839071E-2
2.808846317E0,2.924514748E-2,-6.446149945E-2,-2.709184960E-2
2.811285328E0,3.535379469E-2,-6.201804429E-2,-2.709184960E-2
2.813723505E0,3.901898116E-2,-6.201804429E-2,-2.831357904E-2
2.816162515E0,4.024071246E-2,-6.079631299E-2,-2.953531034E-2
2.818602307E0,4.268417135E-2,-6.201804429E-2,-3.075703792E-2
2.821041317E0,4.390589893E-2,-6.446149945E-2,-3.197876737E-2
2.823479547E0,4.512763023E-2,-6.446149945E-2,-3.197876737E-2
2.825918557E0,4.512763023E-2,-7.057014108E-2,-3.075703792E-2
2.828358349E0,4.879281670E-2,-7.423533499E-2,-2.831357904E-2
2.830797307E0,5.245800689E-2,-7.790051401E-2,-2.587012015E-2
2.833235536E0,5.367973447E-2,-8.645261824E-2,-2.342666127E-2
2.835674547E0,5.367973447E-2,-9.011781216E-2,-2.098320238E-2
2.838114338E0,5.367973447E-2,-1.023351103E-1,-2.220493183E-2
2.840553349E0,5.612319708E-2,-1.096654832E-1,-1.853974350E-2
2.842991578E0,5.856665224E-2,-1.206610501E-1,-1.609628461E-2
2.845430536E0,5.978838354E-2,-1.279914230E-1,-1.365282573E-2
2.847870380E0,5.734492466E-2,-1.402087212E-1,-1.365282573E-2
2.850309390E0,5.856665224E-2,-1.438739002E-1,-1.120936684E-2
2.852747567E0,5.734492466E-2,-1.548694670E-1,-9.987637401E-3
2.855186578E0,5.612319708E-2,-1.670867652E-1,-8.765907958E-3
2.857626370E0,5.856665224E-2,-1.707519591E-1,-8.765907958E-3
2.860065380E0,5.612319708E-2,-1.731954068E-1,-6.322449539E-3
2.862503609E0,5.367973447E-2,-1.829692423E-1,-7.544178981E-3
2.864942620E0,5.734492466E-2,-1.854127049E-1,-6.322449539E-3
2.867382411E0,5.367973447E-2,-1.854127049E-1,-5.100720096E-3
2.869821422E0,5.367973447E-2,-1.902996302E-1,-6.322449539E-3
2.872259599E0,5.490146577E-2,-1.902996302E-1,-6.322449539E-3
2.874698609E0,5.612319708E-2,-1.890778989E-1,-5.100720096E-3
2.877138401E0,5.856665224E-2,-1.890778989E-1,-5.100720096E-3
2.879577411E0,5.612319708E-2,-1.841909736E-1,-3.878990654E-3
2.882015640E0,5.612319708E-2,-1.805257946E-1,-2.657261211E-3
2.884454651E0,5.612319708E-2,-1.731954068E-1,3.451386001E-3
2.886894442E0,5.367973447E-2,-1.707519591E-1,5.894844886E-3
2.889333453E0,5.367973447E-2,-1.621998399E-1,8.338304237E-3
2.891771630E0,5.123627931E-2,-1.536477357E-1,1.078176312E-2
2.894210640E0,5.123627931E-2,-1.450956315E-1,1.322522201E-2
2.896650432E0,4.634936154E-2,-1.377652586E-1,1.566868089E-2
2.899089442E0,4.512763023E-2,-1.255479604E-1,1.689041033E-2
2.901527672E0,3.901898116E-2,-1.169958562E-1,1.811213978E-2
2.903966682E0,3.657552600E-2,-1.084437519E-1,1.811213978E-2
2.906406474E0,3.535379469E-2,-9.744818509E-2,2.055559866E-2
2.908845484E0,2.924514748E-2,-8.523090184E-2,1.933386922E-2
2.911283661E0,2.557996102E-2,-6.934841722E-2,2.177732810E-2
2.913722672E0,2.069304325E-2,-5.590939522E-2,2.055559866E-2
2.916162463E0,1.702785492E-2,-4.980074614E-2,1.689041033E-2
2.918601474E0,1.458439603E-2,-2.170096897E-2,1.933386922E-2
2.921039703E0,6.032289471E-3,-1.437059231E-2,1.566868089E-2
2.923478713E0,6.032289471E-3,1.511890441E-3,1.566868089E-2
2.925918505E0,2.367101144E-3,1.372918487E-2,1.444695145E-2
2.928357515E0,-3.741546068E-3,2.838993818E-2,1.200349256E-2
2.930795745E0,-9.850192815E-3,4.793760926E-2,1.322522201E-2
2.933234703E0,-1.107192226E-2,5.526798591E-2,1.200349256E-2
2.935674547E0,-1.351538114E-2,6.748528779E-2,1.200349256E-2
2.938113505E0,-1.473711058E-2,7.848085463E-2,9.560033679E-3
2.940551734E0,-1.962403022E-2,8.458949625E-2,8.338304237E-3
2.942990745E0,-2.328921668E-2,9.314160049E-2,7.116574328E-3
2.945430536E0,-2.451094799E-2,1.041371673E-1,8.338304237E-3
2.947869547E0,-2.817613445E-2,1.065806299E-1,4.673115443E-3
2.950307776E0,-2.939786576E-2,1.126892716E-1,3.451386001E-3
2.952746786E0,-3.306305408E-2,1.151327342E-1,1.007927116E-3
2.955186578E0,-3.184132278E-2,1.187979281E-1,-2.138023265E-4
2.957625588E0,-3.061959334E-2,1.261283010E-1,-2.138023265E-4
2.960063765E0,-3.306305408E-2,1.249065697E-1,-1.435531769E-3
2.962502776E0,-3.061959334E-2,1.310152113E-1,-1.435531769E-3
2.964942567E0,-3.061959334E-2,1.322369426E-1,-3.878990654E-3
2.967381578E0,-3.184132278E-2,1.322369426E-1,-6.322449539E-3
2.969819807E0,-2.817613445E-2,1.334586740E-1,-7.544178981E-3
2.972258817E0,-2.695440315E-2,1.346804053E-1,-8.765907958E-3
2.974698609E0,-2.328921668E-2,1.359021366E-1,-9.987637401E-3
2.977137620E0,-1.962403022E-2,1.383455992E-1,-8.765907958E-3
2.979575849E0,-1.473711058E-2,1.359021366E-1,-9.987637401E-3
2.982014859E0,-1.351538114E-2,1.346804053E-1,-1.120936684E-2
2.984454651E0,-1.107192226E-2,1.322369426E-1,-1.487455517E-2
2.986893661E0,-4.963275511E-3,1.334586740E-1,-1.365282573E-2
2.989331838E0,-2.519816626E-3,1.297934800E-1,-1.609628461E-2
2.991770849E0,-1.298087183E-3,1.285717636E-1,-1.853974350E-2
2.994210640E0,3.588830587E-3,1.273500323E-1,-1.853974350E-2
2.996649651E0,8.475748822E-3,1.285717636E-1,-1.853974350E-2
2.999087880E0,1.091920771E-2,1.224631071E-1,-2.098320238E-2
3.001526890E0,9.697478265E-3,1.187979281E-1,-2.220493183E-2
3.003966682E0,9.697478265E-3,1.151327342E-1,-2.342666127E-2
3.006405692E0,1.214093715E-2,1.102458090E-1,-2.220493183E-2
3.008843870E0,1.458439603E-2,1.078023612E-1,-2.220493183E-2
3.011282880E0,1.214093715E-2,9.925025702E-2,-2.587012015E-2
3.013722724E0,1.336266659E-2,9.802852571E-2,-2.342666127E-2
3.016161682E0,1.214093715E-2,9.680679440E-2,-2.220493183E-2
3.018599911E0,8.475748822E-3,9.069813788E-2,-2.342666127E-2
3.021038922E0,7.254018914E-3,8.947642148E-2,-2.098320238E-2
3.023478713E0,3.588830587E-3,8.458949625E-2,-2.220493183E-2
3.025917724E0,1.145371702E-3,8.092430234E-2,-2.098320238E-2
3.028355953E0,-2.519816626E-3,7.848085463E-2,-1.976147294E-2
3.030794963E0,-6.185004953E-3,7.359392941E-2,-2.098320238E-2
3.033234755E0,-1.229365170E-2,6.748528779E-2,-1.976147294E-2
3.035673765E0,-1.595884003E-2,6.504182518E-2,-1.976147294E-2
3.038111942E0,-2.084575780E-2,6.382009387E-2,-1.853974350E-2
3.040550953E0,-2.451094799E-2,6.259836257E-2,-1.609628461E-2
3.042990745E0,-2.817613445E-2,6.626355648E-2,-1.487455517E-2
3.045429755E0,-2.939786576E-2,6.259836257E-2,-1.731801406E-2
3.047867984E0,-3.672824055E-2,5.893317983E-2,-1.609628461E-2
3.050306995E0,-4.039343074E-2,6.015490368E-2,-1.487455517E-2
3.052746786E0,-4.283688962E-2,5.771144852E-2,-1.609628461E-2
3.055185797E0,-4.283688962E-2,5.282452703E-2,-1.487455517E-2
3.057624026E0,-4.528034851E-2,5.160279572E-2,-1.487455517E-2
3.060062984E0,-5.016726255E-2,4.671587795E-2,-1.609628461E-2
3.062502828E0,-5.261072516E-2,4.060723260E-2,-1.731801406E-2
3.064941838E0,-5.505418777E-2,3.449858353E-2,-1.609628461E-2
3.067380015E0,-5.749764293E-2,2.838993818E-2,-1.731801406E-2
3.069819026E0,-6.238456070E-2,1.495091431E-2,-1.853974350E-2
3.072258817E0,-6.360629201E-2,7.620537654E-3,-1.731801406E-2
3.074697828E0,-6.482802331E-2,1.511890441E-3,-1.731801406E-2
3.077136057E0,-6.482802331E-2,-8.261945099E-3,-1.731801406E-2
3.079575067E0,-6.360629201E-2,-1.681405120E-2,-1.731801406E-2
3.082014859E0,-6.482802331E-2,-2.170096897E-2,-1.731801406E-2
3.084453870E0,-6.116282940E-2,-2.536615729E-2,-1.609628461E-2
3.086892099E0,-5.749764293E-2,-3.391826153E-2,-1.609628461E-2
3.089331057E0,-5.871937424E-2,-3.880517930E-2,-1.487455517E-2
3.091770901E0,-5.261072516E-2,-4.369209707E-2,-1.609628461E-2
3.094209911E0,-4.772380739E-2,-4.613555968E-2,-1.487455517E-2
3.096648088E0,-4.161515832E-2,-4.613555968E-2,-1.487455517E-2
3.099087099E0,-3.428478539E-2,-5.102247745E-2,-1.365282573E-2
3.101526890E0,-2.939786576E-2,-5.224420503E-2,-1.365282573E-2
3.103965901E0,-2.451094799E-2,-4.980074614E-2,-1.243109629E-2
3.106404130E0,-1.840229891E-2,-5.346593261E-2,-1.243109629E-2
3.108843140E0,-8.628463373E-3,-5.102247745E-2,-1.243109629E-2
3.111282932E0,-7.635774091E-5,-5.346593261E-2,-9.987637401E-3
3.113721942E0,7.254018914E-3,-5.224420503E-2,-9.987637401E-3
3.116160172E0,1.091920771E-2,-5.224420503E-2,-1.120936684E-2
3.118599130E0,1.580612548E-2,-5.224420503E-2,-9.987637401E-3
3.121038974E0,2.313650213E-2,-4.980074614E-2,-6.322449539E-3
3.123477932E0,2.924514748E-2,-4.613555968E-2,-5.100720096E-3
3.125916161E0,3.413206339E-2,-4.247036949E-2,-1.435531769E-3
3.128355172E0,3.291033581E-2,-4.857901484E-2,-5.100720096E-3
3.130794963E0,3.291033581E-2,-4.491382837E-2,-3.878990654E-3
3.133233974E0,3.657552600E-2,-4.247036949E-2,-2.138023265E-4
3.135672203E0,3.413206339E-2,-4.247036949E-2,1.007927116E-3
3.138111213E0,3.291033581E-2,-4.369209707E-2,1.007927116E-3
3.140551005E0,3.168860823E-2,-3.880517930E-2,2.229656558E-3
3.142990015E0,2.924514748E-2,-3.758345172E-2,4.673115443E-3
3.145428245E0,2.557996102E-2,-3.880517930E-2,3.451386001E-3
3.147867255E0,1.947131380E-2,-3.269653395E-2,5.894844886E-3
3.150307047E0,1.824958436E-2,-3.269653395E-2,5.894844886E-3
3.152746057E0,1.580612548E-2,-2.414442599E-2,7.116574328E-3
3.155184234E0,8.475748822E-3,-2.170096897E-2,7.116574328E-3
3.157623245E0,3.588830587E-3,-1.803578064E-2,5.894844886E-3
3.160063036E0,-7.635774091E-5,-9.483674541E-3,8.338304237E-3
3.162502047E0,-3.741546068E-3,-4.596756771E-3,8.338304237E-3
3.164940276E0,-3.741546068E-3,2.733619884E-3,8.338304237E-3
3.167379286E0,-1.229365170E-2,1.006399654E-2,8.338304237E-3
3.169819078E0,-1.229365170E-2,1.617264375E-2,7.116574328E-3
3.172258088E0,-1.473711058E-2,2.716821060E-2,8.338304237E-3
3.174696317E0,-1.595884003E-2,3.205512837E-2,5.894844886E-3
3.177135328E0,-2.084575780E-2,4.060723260E-2,4.673115443E-3
3.179575120E0,-2.206748538E-2,4.671587795E-2,3.451386001E-3
3.182014130E0,-2.451094799E-2,5.160279572E-2,3.451386001E-3
3.184452307E0,-2.451094799E-2,6.015490368E-2,3.451386001E-3
3.186891317E0,-2.451094799E-2,6.748528779E-2,3.451386001E-3
3.189331109E0,-2.695440315E-2,6.870701909E-2,2.229656558E-3
3.191770120E0,-2.939786576E-2,6.992873549E-2,1.007927116E-3
3.194208349E0,-3.184132278E-2,6.992873549E-2,-2.657261211E-3
3.196647359E0,-3.061959334E-2,7.603739202E-2,-1.435531769E-3
3.199087151E0,-2.939786576E-2,7.481566072E-2,-1.435531769E-3
3.201526161E0,-3.306305408E-2,7.359392941E-2,-2.657261211E-3
3.203964390E0,-3.306305408E-2,7.115046680E-2,-2.657261211E-3
3.206403401E0,-3.428478539E-2,6.748528779E-2,-2.657261211E-3
3.208843192E0,-3.550651297E-2,6.870701909E-2,-2.138023265E-4
3.211282203E0,-3.428478539E-2,6.015490368E-2,-1.435531769E-3
3.213720432E0,-3.428478539E-2,5.526798591E-2,-2.657261211E-3
3.216159390E0,-3.184132278E-2,5.038106814E-2,-1.435531769E-3
3.218599234E0,-2.573267557E-2,4.427242279E-2,-1.435531769E-3
3.221038245E0,-2.451094799E-2,3.816377372E-2,-2.138023265E-4
3.223476422E0,-2.084575780E-2,2.961166576E-2,1.007927116E-3
3.225915432E0,-1.840229891E-2,2.472474799E-2,2.229656558E-3
3.228355224E0,-1.595884003E-2,1.495091431E-2,3.451386001E-3
3.230794234E0,-1.229365170E-2,6.398808211E-3,2.229656558E-3
3.233232463E0,-1.107192226E-2,2.901609987E-4,1.007927116E-3
3.235671474E0,-6.185004953E-3,-7.040215656E-3,-2.138023265E-4
3.238111265E0,-1.298087183E-3,-1.070540398E-2,1.007927116E-3
3.240550276E0,3.588830587E-3,-1.803578064E-2,1.007927116E-3
3.242988505E0,6.032289471E-3,-2.292269841E-2,3.451386001E-3
3.245427515E0,1.091920771E-2,-2.536615729E-2,3.451386001E-3
3.247867307E0,1.336266659E-2,-3.269653395E-2,1.007927116E-3
3.250306317E0,1.458439603E-2,-3.513999283E-2,1.007927116E-3
3.252744495E0,1.824958436E-2,-3.880517930E-2,1.007927116E-3
3.255183505E0,1.947131380E-2,-4.491382837E-2,-2.138023265E-4
3.257623349E0,1.580612548E-2,-4.980074614E-2,-2.138023265E-4
3.260062359E0,1.824958436E-2,-4.857901484E-2,1.007927116E-3
3.262500536E0,1.580612548E-2,-5.346593261E-2,-2.138023265E-4
3.264939547E0,1.458439603E-2,-5.468766391E-2,-2.138023265E-4
3.267379338E0,1.214093715E-2,-5.957458168E-2,1.007927116E-3
3.269818349E0,1.214093715E-2,-6.201804429E-2,1.007927116E-3
3.272256578E0,7.254018914E-3,-6.201804429E-2,2.229656558E-3
3.274695588E0,4.810560029E-3,-6.323976815E-2,3.451386001E-3
3.277135380E0,3.588830587E-3,-6.323976815E-2,4.673115443E-3
3.279574390E0,-7.635774091E-5,-6.568323076E-2,4.673115443E-3
3.282012567E0,-3.741546068E-3,-7.057014108E-2,4.673115443E-3
3.284451578E0,-7.406734396E-3,-6.812668592E-2,5.894844886E-3
3.286891422E0,-1.107192226E-2,-6.934841722E-2,4.673115443E-3
3.289330432E0,-1.351538114E-2,-7.179187238E-2,3.451386001E-3
3.291768609E0,-1.473711058E-2,-6.934841722E-2,3.451386001E-3
3.294207620E0,-1.351538114E-2,-6.934841722E-2,2.229656558E-3
3.296647411E0,-1.229365170E-2,-6.812668592E-2,1.007927116E-3
3.299086422E0,-1.351538114E-2,-6.323976815E-2,2.229656558E-3
3.301524651E0,-1.229365170E-2,-5.957458168E-2,3.451386001E-3
3.303963661E0,-1.229365170E-2,-5.957458168E-2,1.007927116E-3
3.306403453E0,-9.850192815E-3,-5.224420503E-2,3.451386001E-3
3.308842463E0,-8.628463373E-3,-4.613555968E-2,4.673115443E-3
3.311280692E0,-7.406734396E-3,-3.758345172E-2,7.116574328E-3
3.313719703E0,-8.628463373E-3,-3.147480637E-2,8.338304237E-3
3.316159495E0,-4.963275511E-3,-2.658788860E-2,7.116574328E-3
3.318598505E0,-3.741546068E-3,-1.803578064E-2,9.560033679E-3
3.321036734E0,-7.635774091E-5,-1.437059231E-2,9.560033679E-3
3.323475745E0,-1.298087183E-3,-1.070540398E-2,8.338304237E-3
3.325915536E0,1.145371702E-3,-5.818486214E-3,8.338304237E-3
3.328354495E0,2.367101144E-3,8.842267096E-3,1.078176312E-2
3.330792724E0,-1.298087183E-3,5.177078769E-3,8.338304237E-3
3.333231734E0,-2.519816626E-3,6.398808211E-3,7.116574328E-3
3.335671526E0,-4.963275511E-3,1.128572598E-2,1.078176312E-2
3.338110536E0,-3.741546068E-3,1.617264375E-2,9.560033679E-3
3.340548765E0,-7.635774091E-5,1.739437319E-2,9.560033679E-3
3.342987776E0,-7.635774091E-5,1.983783208E-2,1.078176312E-2
3.345427567E0,-2.519816626E-3,2.594647929E-2,1.322522201E-2
3.347866578E0,-2.519816626E-3,2.838993818E-2,1.566868089E-2
3.350304807E0,-1.298087183E-3,2.961166576E-2,1.566868089E-2
3.352743817E0,-7.635774091E-5,3.449858353E-2,1.322522201E-2
3.355183609E0,-2.519816626E-3,3.449858353E-2,1.322522201E-2
3.357622620E0,-3.741546068E-3,3.694204614E-2,1.322522201E-2
3.360060849E0,-3.741546068E-3,3.816377372E-2,1.322522201E-2
3.362499807E0,-1.298087183E-3,4.060723260E-2,1.444695145E-2
3.364939651E0,1.145371702E-3,4.671587795E-2,1.444695145E-2
3.367378609E0,-2.519816626E-3,4.427242279E-2,1.322522201E-2
3.369816838E0,-1.298087183E-3,4.427242279E-2,1.322522201E-2
3.372255849E0,1.145371702E-3,4.549415037E-2,1.322522201E-2
3.374695640E0,-7.635774091E-5,4.549415037E-2,1.322522201E-2
3.377134651E0,-7.635774091E-5,4.305069149E-2,1.078176312E-2
3.379572880E0,-3.741546068E-3,3.694204614E-2,9.560033679E-3
3.382011890E0,-2.519816626E-3,3.572031483E-2,8.338304237E-3
3.384451682E0,-1.298087183E-3,3.083339706E-2,8.338304237E-3
3.386890692E0,-2.519816626E-3,2.472474799E-2,5.894844886E-3
3.389328922E0,-2.519816626E-3,2.105956152E-2,7.116574328E-3
3.391767932E0,-2.519816626E-3,1.495091431E-2,9.560033679E-3
3.394207724E0,-6.185004953E-3,3.955349326E-3,8.338304237E-3
3.396646734E0,-6.185004953E-3,-2.153297886E-3,9.560033679E-3
3.399084963E0,-7.406734396E-3,-5.818486214E-3,1.078176312E-2
3.401523922E0,-9.850192815E-3,-1.681405120E-2,8.338304237E-3
3.403963765E0,-8.628463373E-3,-1.803578064E-2,9.560033679E-3
3.406402724E0,-1.107192226E-2,-2.414442599E-2,9.560033679E-3
3.408840953E0,-1.229365170E-2,-3.025307506E-2,1.078176312E-2
3.411279963E0,-1.351538114E-2,-3.269653395E-2,1.200349256E-2
3.413719755E0,-1.351538114E-2,-3.636172414E-2,1.078176312E-2
3.416158765E0,-1.351538114E-2,-3.513999283E-2,1.200349256E-2
3.418596995E0,-1.595884003E-2,-3.758345172E-2,1.200349256E-2
3.421036005E0,-1.473711058E-2,-3.391826153E-2,1.322522201E-2
3.423475797E0,-1.595884003E-2,-3.391826153E-2,1.200349256E-2
3.425914807E0,-1.351538114E-2,-3.025307506E-2,1.322522201E-2
3.428353036E0,-1.229365170E-2,-2.536615729E-2,1.322522201E-2
3.430792047E0,-1.107192226E-2,-2.292269841E-2,1.200349256E-2
3.433231838E0,-1.595884003E-2,-2.047923952E-2,9.560033679E-3
3.435670849E0,-1.595884003E-2,-1.559232175E-2,8.338304237E-3
3.438109026E0,-1.840229891E-2,-1.437059231E-2,5.894844886E-3
3.440548036E0,-1.718056761E-2,-4.596756771E-3,5.894844886E-3
3.442987880E0,-1.595884003E-2,2.901609987E-4,4.673115443E-3
3.445426890E0,-1.840229891E-2,7.620537654E-3,3.451386001E-3
3.447865067E0,-1.840229891E-2,1.006399654E-2,5.894844886E-3
3.450304078E0,-2.206748538E-2,1.250745542E-2,4.673115443E-3
3.452743870E0,-2.084575780E-2,2.105956152E-2,2.229656558E-3
3.455182880E0,-2.084575780E-2,2.472474799E-2,-2.138023265E-4
3.457621109E0,-2.328921668E-2,2.838993818E-2,-2.138023265E-4
3.460060120E0,-2.328921668E-2,2.838993818E-2,-1.435531769E-3
3.462499911E0,-2.084575780E-2,4.060723260E-2,1.007927116E-3
3.464938922E0,-2.328921668E-2,4.182896018E-2,1.007927116E-3
3.467377151E0,-2.206748538E-2,4.427242279E-2,-1.435531769E-3
3.469816161E0,-2.206748538E-2,4.549415037E-2,-2.138023265E-4
3.472255953E0,-1.962403022E-2,4.671587795E-2,2.229656558E-3
3.474694963E0,-1.840229891E-2,4.915934056E-2,1.007927116E-3
3.477133140E0,-1.840229891E-2,4.427242279E-2,-1.435531769E-3
3.479572151E0,-1.595884003E-2,4.793760926E-2,-2.138023265E-4
3.482011995E0,-1.718056761E-2,4.549415037E-2,-2.657261211E-3
3.484450953E0,-1.473711058E-2,3.938550130E-2,-1.435531769E-3
3.486889182E0,-1.473711058E-2,4.182896018E-2,-2.138023265E-4
3.489328192E0,-9.850192815E-3,4.305069149E-2,1.007927116E-3
3.491767984E0,-8.628463373E-3,3.816377372E-2,-1.435531769E-3
3.494206995E0,-6.185004953E-3,3.694204614E-2,1.007927116E-3
3.496645224E0,-6.185004953E-3,3.327685595E-2,2.229656558E-3
3.499084234E0,-4.963275511E-3,3.083339706E-2,2.229656558E-3
3.501524026E0,-7.406734396E-3,2.350302041E-2,1.007927116E-3
3.503963036E0,-4.963275511E-3,2.350302041E-2,1.007927116E-3
3.506401265E0,-6.185004953E-3,2.105956152E-2,2.229656558E-3
3.508840276E0,-6.185004953E-3,1.495091431E-2,2.229656558E-3
3.511280067E0,-6.185004953E-3,1.128572598E-2,2.229656558E-3
3.513719078E0,-9.850192815E-3,3.955349326E-3,-2.138023265E-4
3.516157255E0,-1.107192226E-2,5.177078769E-3,-1.435531769E-3
3.518596265E0,-9.850192815E-3,2.733619884E-3,1.007927116E-3
3.521036109E0,-9.850192815E-3,7.620537654E-3,3.451386001E-3
3.523475120E0,-1.107192226E-2,6.398808211E-3,3.451386001E-3
3.525913297E0,-1.473711058E-2,5.177078769E-3,4.673115443E-3
3.528352307E0,-1.718056761E-2,3.955349326E-3,2.229656558E-3
3.530792099E0,-1.595884003E-2,7.620537654E-3,4.673115443E-3
3.533231109E0,-1.718056761E-2,6.398808211E-3,3.451386001E-3
3.535669338E0,-1.962403022E-2,1.250745542E-2,4.673115443E-3
3.538108349E0,-2.328921668E-2,1.128572598E-2,4.673115443E-3
3.540548140E0,-2.451094799E-2,1.372918487E-2,3.451386001E-3
3.542987151E0,-2.573267557E-2,1.617264375E-2,3.451386001E-3
3.545425380E0,-2.573267557E-2,2.228129096E-2,4.673115443E-3
3.547864390E0,-2.695440315E-2,3.083339706E-2,5.894844886E-3
3.550304182E0,-3.184132278E-2,2.594647929E-2,4.673115443E-3
3.552743192E0,-2.939786576E-2,3.694204614E-2,7.116574328E-3
3.555181370E0,-3.061959334E-2,3.816377372E-2,8.338304237E-3
3.557620380E0,-3.428478539E-2,3.694204614E-2,7.116574328E-3
3.560060224E0,-3.061959334E-2,4.305069149E-2,7.116574328E-3
3.562499234E0,-2.939786576E-2,4.182896018E-2,8.338304237E-3
3.564937411E0,-2.939786576E-2,4.549415037E-2,5.894844886E-3
3.567376422E0,-2.939786576E-2,4.671587795E-2,4.673115443E-3
3.569816213E0,-2.939786576E-2,4.915934056E-2,3.451386001E-3
3.572255224E0,-2.817613445E-2,5.038106814E-2,4.673115443E-3
3.574693453E0,-2.695440315E-2,4.915934056E-2,3.451386001E-3
3.577132463E0,-2.451094799E-2,5.648971722E-2,5.894844886E-3
3.579572255E0,-2.206748538E-2,5.038106814E-2,4.673115443E-3
3.582011265E0,-2.206748538E-2,4.793760926E-2,4.673115443E-3
3.584449495E0,-2.084575780E-2,4.671587795E-2,5.894844886E-3
3.586888505E0,-1.962403022E-2,4.549415037E-2,5.894844886E-3
3.589328297E0,-1.595884003E-2,4.182896018E-2,7.116574328E-3
3.591767307E0,-1.473711058E-2,3.938550130E-2,8.338304237E-3
3.594205484E0,-1.595884003E-2,3.327685595E-2,4.673115443E-3
3.596644495E0,-1.229365170E-2,2.961166576E-2,7.116574328E-3
3.599084286E0,-1.351538114E-2,2.350302041E-2,7.116574328E-3
3.601523297E0,-9.850192815E-3,1.495091431E-2,8.338304237E-3
3.603961526E0,-1.107192226E-2,1.495091431E-2,8.338304237E-3
3.606400536E0,-8.628463373E-3,7.620537654E-3,7.116574328E-3
3.608840328E0,-7.406734396E-3,1.006399654E-2,8.338304237E-3
3.611279338E0,-4.963275511E-3,3.955349326E-3,9.560033679E-3
3.613717567E0,-4.963275511E-3,2.733619884E-3,8.338304237E-3
3.616156578E0,-4.963275511E-3,1.511890441E-3,9.560033679E-3
3.618596370E0,-1.298087183E-3,-2.153297886E-3,8.338304237E-3
3.621035380E0,-7.635774091E-5,5.177078769E-3,9.560033679E-3
3.623473609E0,1.145371702E-3,2.901609987E-4,8.338304237E-3
3.625912620E0,1.145371702E-3,8.842267096E-3,9.560033679E-3
3.628352411E0,1.145371702E-3,1.128572598E-2,1.200349256E-2
3.630791422E0,2.367101144E-3,1.617264375E-2,1.200349256E-2
3.633229599E0,-1.298087183E-3,1.861610264E-2,1.200349256E-2
3.635668609E0,-7.635774091E-5,2.228129096E-2,1.200349256E-2
3.638108401E0,2.367101144E-3,2.472474799E-2,1.078176312E-2
3.640547411E0,1.145371702E-3,2.472474799E-2,7.116574328E-3
3.642985640E0,1.145371702E-3,3.449858353E-2,5.894844886E-3
3.645424651E0,1.145371702E-3,3.938550130E-2,4.673115443E-3
3.647864442E0,-7.635774091E-5,3.938550130E-2,2.229656558E-3
3.650303453E0,3.588830587E-3,4.793760926E-2,2.229656558E-3
3.652741682E0,-1.298087183E-3,5.038106814E-2,1.007927116E-3
3.655180692E0,-3.741546068E-3,5.404625833E-2,2.229656558E-3
3.657620484E0,-3.741546068E-3,6.259836257E-2,2.229656558E-3
3.660059495E0,-2.519816626E-3,6.748528779E-2,5.894844886E-3
3.662497724E0,-4.963275511E-3,7.115046680E-2,2.229656558E-3
3.664936682E0,-9.850192815E-3,6.870701909E-2,-2.138023265E-4
3.667376526E0,-7.406734396E-3,7.115046680E-2,-1.435531769E-3
3.669815536E0,-8.628463373E-3,8.092430234E-2,-2.138023265E-4
3.672253713E0,-1.351538114E-2,7.359392941E-2,-2.657261211E-3
3.674692724E0,-1.351538114E-2,7.237219810E-2,-2.657261211E-3
3.677132567E0,-1.351538114E-2,7.848085463E-2,-2.138023265E-4
3.679571526E0,-1.229365170E-2,7.603739202E-2,1.007927116E-3
3.682009755E0,-1.473711058E-2,7.725912333E-2,2.229656558E-3
3.684448765E0,-1.473711058E-2,7.603739202E-2,1.007927116E-3
3.686888557E0,-1.595884003E-2,6.992873549E-2,-2.138023265E-4
3.689327567E0,-1.473711058E-2,7.237219810E-2,2.229656558E-3
3.691765797E0,-1.473711058E-2,6.748528779E-2,4.673115443E-3
3.694204807E0,-1.718056761E-2,6.137662753E-2,7.116574328E-3
3.696644599E0,-1.718056761E-2,5.648971722E-2,4.673115443E-3
3.699083609E0,-1.595884003E-2,5.282452703E-2,3.451386001E-3
3.701521786E0,-1.718056761E-2,4.793760926E-2,5.894844886E-3
3.703960797E0,-1.595884003E-2,4.182896018E-2,3.451386001E-3
3.706400588E0,-1.718056761E-2,3.572031483E-2,3.451386001E-3
3.708839599E0,-1.718056761E-2,3.572031483E-2,4.673115443E-3
3.711277828E0,-1.595884003E-2,2.716821060E-2,4.673115443E-3
3.713716838E0,-1.473711058E-2,2.228129096E-2,5.894844886E-3
3.716156630E0,-1.351538114E-2,1.739437319E-2,7.116574328E-3
3.718595640E0,-1.595884003E-2,8.842267096E-3,3.451386001E-3
3.721033870E0,-1.351538114E-2,7.620537654E-3,3.451386001E-3
3.723472880E0,-1.229365170E-2,2.901609987E-4,4.673115443E-3
3.725912672E0,-1.107192226E-2,-2.153297886E-3,5.894844886E-3
3.728351682E0,-7.406734396E-3,-8.261945099E-3,4.673115443E-3
3.730789911E0,-1.107192226E-2,-1.681405120E-2,3.451386001E-3
3.733228922E0,-8.628463373E-3,-2.047923952E-2,4.673115443E-3
3.735668713E0,-7.406734396E-3,-2.536615729E-2,3.451386001E-3
3.738107724E0,-8.628463373E-3,-3.391826153E-2,2.229656558E-3
3.740545901E0,-1.107192226E-2,-3.636172414E-2,3.451386001E-3
3.742984911E0,-4.963275511E-3,-3.880517930E-2,2.229656558E-3
3.745424703E0,-6.185004953E-3,-4.369209707E-2,2.229656558E-3
3.747863713E0,-6.185004953E-3,-4.735728726E-2,3.451386001E-3
3.750301942E0,-8.628463373E-3,-4.980074614E-2,1.007927116E-3
3.752740953E0,-6.185004953E-3,-5.102247745E-2,-2.138023265E-4
3.755180745E0,-6.185004953E-3,-5.346593261E-2,-2.138023265E-4
3.757619755E0,-6.185004953E-3,-6.079631299E-2,-2.657261211E-3
3.760057984E0,-4.963275511E-3,-5.590939522E-2,-1.435531769E-3
3.762496995E0,-4.963275511E-3,-5.224420503E-2,-2.138023265E-4
3.764936786E0,-3.741546068E-3,-5.346593261E-2,2.229656558E-3
3.767375797E0,-1.298087183E-3,-5.224420503E-2,-2.138023265E-4
3.769814026E0,-7.635774091E-5,-4.735728726E-2,1.007927116E-3
3.772252984E0,2.367101144E-3,-4.369209707E-2,2.229656558E-3
3.774692828E0,1.145371702E-3,-4.124864191E-2,1.007927116E-3
3.777131838E0,3.588830587E-3,-4.002691060E-2,2.229656558E-3
3.779570015E0,-7.635774091E-5,-3.513999283E-2,2.229656558E-3
3.782009026E0,1.145371702E-3,-3.391826153E-2,-2.138023265E-4
3.784448817E0,4.810560029E-3,-2.903134376E-2,-1.435531769E-3
3.786887828E0,4.810560029E-3,-2.536615729E-2,-1.435531769E-3
3.789326057E0,6.032289471E-3,-2.170096897E-2,-2.138023265E-4
3.791765067E0,7.254018914E-3,-1.559232175E-2,-2.138023265E-4
3.794204859E0,7.254018914E-3,-1.314886287E-2,1.007927116E-3
3.796643870E0,7.254018914E-3,-7.040215656E-3,-2.657261211E-3
3.799082099E0,4.810560029E-3,-3.375027329E-3,-1.435531769E-3
3.801521109E0,4.810560029E-3,2.733619884E-3,-2.657261211E-3
3.803960901E0,7.254018914E-3,3.955349326E-3,-2.657261211E-3
3.806399911E0,3.588830587E-3,5.177078769E-3,-3.878990654E-3
3.808838088E0,3.588830587E-3,1.128572598E-2,-3.878990654E-3
3.811277099E0,2.367101144E-3,1.250745542E-2,-2.657261211E-3
3.813716942E0,7.254018914E-3,1.739437319E-2,-2.657261211E-3
3.816155901E0,4.810560029E-3,1.861610264E-2,-3.878990654E-3
3.818594130E0,4.810560029E-3,2.472474799E-2,-1.435531769E-3
3.821033140E0,4.810560029E-3,2.350302041E-2,-2.657261211E-3
3.823472932E0,4.810560029E-3,2.838993818E-2,-2.657261211E-3
3.825911942E0,2.367101144E-3,2.594647929E-2,-3.878990654E-3
3.828350172E0,2.367101144E-3,2.350302041E-2,-3.878990654E-3
3.830789182E0,3.588830587E-3,3.083339706E-2,-2.657261211E-3
3.833228974E0,4.810560029E-3,3.083339706E-2,-1.435531769E-3
3.835667984E0,-7.635774091E-5,3.083339706E-2,-2.657261211E-3
3.838106161E0,1.145371702E-3,3.205512837E-2,-2.657261211E-3
3.840545224E0,-7.635774091E-5,2.838993818E-2,-2.657261211E-3
3.842985015E0,-7.635774091E-5,2.838993818E-2,-3.878990654E-3
3.845424026E0,-1.298087183E-3,2.716821060E-2,-3.878990654E-3
3.847862203E0,1.145371702E-3,2.472474799E-2,-2.657261211E-3
3.850301213E0,-2.519816626E-3,2.472474799E-2,-2.657261211E-3
3.852741005E0,-2.519816626E-3,2.350302041E-2,-2.138023265E-4
3.855180015E0,-4.963275511E-3,1.983783208E-2,-2.138023265E-4
3.857618245E0,-3.741546068E-3,1.739437319E-2,-1.435531769E-3
3.860057255E0,-6.185004953E-3,1.495091431E-2,-2.657261211E-3
3.862497047E0,-6.185004953E-3,1.128572598E-2,-1.435531769E-3
3.864936057E0,-7.406734396E-3,1.250745542E-2,1.007927116E-3
3.867374286E0,-6.185004953E-3,5.177078769E-3,-2.138023265E-4
3.869813297E0,-4.963275511E-3,2.901609987E-4,1.007927116E-3
3.872253088E0,-4.963275511E-3,-9.315684438E-4,1.007927116E-3
3.874692099E0,-3.741546068E-3,-2.153297886E-3,1.007927116E-3
3.877130276E0,-4.963275511E-3,-4.596756771E-3,2.229656558E-3
3.879569286E0,-4.963275511E-3,-7.040215656E-3,3.451386001E-3
3.882009130E0,-2.519816626E-3,-1.070540398E-2,3.451386001E-3
3.884448088E0,-6.185004953E-3,-1.070540398E-2,2.229656558E-3
3.886886317E0,-8.628463373E-3,-1.192713343E-2,2.229656558E-3
3.889325328E0,-7.406734396E-3,-1.437059231E-2,2.229656558E-3
3.891765120E0,-9.850192815E-3,-1.559232175E-2,1.007927116E-3
3.894204130E0,-7.406734396E-3,-1.192713343E-2,1.007927116E-3
3.896642359E0,-8.628463373E-3,-1.437059231E-2,1.007927116E-3
3.899081370E0,-8.628463373E-3,-1.192713343E-2,2.229656558E-3
3.901521161E0,-1.229365170E-2,-1.437059231E-2,-2.138023265E-4
3.903960172E0,-1.107192226E-2,-1.192713343E-2,1.007927116E-3
3.906398401E0,-1.229365170E-2,-9.483674541E-3,-2.138023265E-4
3.908837359E0,-1.107192226E-2,-8.261945099E-3,1.007927116E-3
3.911277203E0,-9.850192815E-3,-3.375027329E-3,1.007927116E-3
3.913716213E0,-9.850192815E-3,-2.153297886E-3,-2.138023265E-4
3.916154390E0,-1.107192226E-2,1.511890441E-3,-1.435531769E-3
3.918593401E0,-9.850192815E-3,5.177078769E-3,-2.138023265E-4
3.921033192E0,-1.107192226E-2,5.177078769E-3,-2.657261211E-3
3.923472203E0,-7.406734396E-3,1.006399654E-2,-2.657261211E-3
3.925910432E0,-1.107192226E-2,1.372918487E-2,-2.657261211E-3
3.928349442E0,-8.628463373E-3,1.250745542E-2,-2.657261211E-3
3.930789234E0,-8.628463373E-3,1.861610264E-2,-2.657261211E-3
3.933228245E0,-6.185004953E-3,2.228129096E-2,-3.878990654E-3
3.935666474E0,-8.628463373E-3,1.861610264E-2,-6.322449539E-3
3.938105484E0,-6.185004953E-3,1.739437319E-2,-5.100720096E-3
3.940545276E0,-3.741546068E-3,2.105956152E-2,-5.100720096E-3
3.942984286E0,-4.963275511E-3,2.472474799E-2,-3.878990654E-3
3.945422515E0,-3.741546068E-3,2.228129096E-2,-6.322449539E-3
3.947861474E0,-3.741546068E-3,2.228129096E-2,-5.100720096E-3
3.950301317E0,-1.298087183E-3,2.472474799E-2,-3.878990654E-3
3.952740276E0,-1.298087183E-3,2.472474799E-2,-2.657261211E-3
3.955178505E0,-3.741546068E-3,2.105956152E-2,-3.878990654E-3
3.957617515E0,-3.741546068E-3,2.228129096E-2,-2.657261211E-3
3.960057307E0,-2.519816626E-3,2.350302041E-2,-3.878990654E-3
3.962496317E0,-2.519816626E-3,1.983783208E-2,-2.657261211E-3
3.964934547E0,-2.519816626E-3,2.105956152E-2,-2.657261211E-3
3.967373557E0,-1.298087183E-3,2.594647929E-2,-2.138023265E-4
3.969813349E0,-4.963275511E-3,2.105956152E-2,-1.435531769E-3
3.972252359E0,-7.406734396E-3,2.472474799E-2,-1.435531769E-3
3.974690588E0,-1.107192226E-2,2.472474799E-2,-1.435531769E-3
3.977129599E0,-9.850192815E-3,2.350302041E-2,-2.657261211E-3
3.979569390E0,-1.351538114E-2,2.594647929E-2,-2.657261211E-3
3.982008401E0,-1.595884003E-2,2.594647929E-2,-2.138023265E-4
3.984446578E0,-1.718056761E-2,2.716821060E-2,-2.138023265E-4
3.986885588E0,-1.718056761E-2,2.961166576E-2,-2.657261211E-3
3.989325380E0,-1.595884003E-2,3.327685595E-2,-1.435531769E-3
3.991764390E0,-1.595884003E-2,3.449858353E-2,-2.657261211E-3
3.994202620E0,-1.595884003E-2,3.327685595E-2,-2.657261211E-3
3.996641630E0,-1.718056761E-2,3.572031483E-2,-2.657261211E-3
3.999081422E0,-1.718056761E-2,3.449858353E-2,-3.878990654E-3
4.001520432E0,-1.595884003E-2,3.572031483E-2,-2.657261211E-3
4.003958661E0,-1.473711058E-2,3.816377372E-2,-2.657261211E-3
4.006397672E0,-1.473711058E-2,3.449858353E-2,-5.100720096E-3
4.008837463E0,-1.107192226E-2,3.694204614E-2,-3.878990654E-3
4.011276474E0,-1.107192226E-2,3.327685595E-2,-5.100720096E-3
4.013714651E0,-1.107192226E-2,3.449858353E-2,-3.878990654E-3
4.016153661E0,-8.628463373E-3,2.838993818E-2,-3.878990654E-3
4.018593505E0,-4.963275511E-3,2.838993818E-2,-5.100720096E-3
4.021032515E0,-4.963275511E-3,2.716821060E-2,-2.657261211E-3
4.023470692E0,-4.963275511E-3,2.472474799E-2,-2.657261211E-3
4.025909703E0,-3.741546068E-3,2.228129096E-2,-3.878990654E-3
4.028349495E0,-2.519816626E-3,2.105956152E-2,-3.878990654E-3
4.030788505E0,1.145371702E-3,2.228129096E-2,-2.657261211E-3
4.033226734E0,1.145371702E-3,1.983783208E-2,-1.435531769E-3
4.035665745E0,-7.635774091E-5,1.617264375E-2,-1.435531769E-3
4.038105536E0,2.367101144E-3,1.495091431E-2,-1.435531769E-3
4.040544547E0,3.588830587E-3,1.250745542E-2,-1.435531769E-3
4.042982776E0,3.588830587E-3,1.495091431E-2,-1.435531769E-3
4.045421786E0,3.588830587E-3,1.372918487E-2,-1.435531769E-3
4.047861578E0,2.367101144E-3,1.006399654E-2,-2.138023265E-4
4.050300588E0,4.810560029E-3,1.006399654E-2,-2.138023265E-4
4.052738765E0,2.367101144E-3,1.128572598E-2,-1.435531769E-3
4.055177776E0,2.367101144E-3,7.620537654E-3,-2.138023265E-4
4.057617620E0,2.367101144E-3,6.398808211E-3,-1.435531769E-3
4.060056578E0,2.367101144E-3,1.128572598E-2,-2.138023265E-4
4.062494807E0,3.588830587E-3,5.177078769E-3,-2.657261211E-3
4.064933817E0,2.367101144E-3,7.620537654E-3,-1.435531769E-3
4.067373609E0,2.367101144E-3,8.842267096E-3,-1.435531769E-3
4.069812620E0,1.145371702E-3,6.398808211E-3,-1.435531769E-3
4.072250849E0,1.145371702E-3,7.620537654E-3,-1.435531769E-3
4.074689859E0,-7.635774091E-5,5.177078769E-3,-1.435531769E-3
4.077129651E0,-7.635774091E-5,7.620537654E-3,-2.138023265E-4
4.079568661E0,-2.519816626E-3,5.177078769E-3,-2.138023265E-4
4.082006890E0,-7.635774091E-5,6.398808211E-3,-2.138023265E-4
4.084445849E0,-1.298087183E-3,3.955349326E-3,1.007927116E-3
4.086885692E0,-3.741546068E-3,7.620537654E-3,2.229656558E-3
4.089324703E0,-4.963275511E-3,7.620537654E-3,1.007927116E-3
4.091762880E0,-2.519816626E-3,7.620537654E-3,-2.138023265E-4
4.094201890E0,-3.741546068E-3,1.006399654E-2,-1.435531769E-3
4.096641682E0,-1.298087183E-3,8.842267096E-3,-2.138023265E-4
4.099080692E0,-2.519816626E-3,7.620537654E-3,-2.138023265E-4
4.101518922E0,-1.298087183E-3,6.398808211E-3,1.007927116E-3
4.103957932E0,-7.635774091E-5,6.398808211E-3,1.007927116E-3
4.106397724E0,-1.298087183E-3,5.177078769E-3,-2.138023265E-4
4.108836734E0,1.145371702E-3,1.511890441E-3,-1.435531769E-3
4.111274963E0,2.367101144E-3,-9.315684438E-4,-2.138023265E-4
4.113713974E0,1.145371702E-3,-9.315684438E-4,-2.138023265E-4
4.116153765E0,1.145371702E-3,2.901609987E-4,-2.138023265E-4
4.118592776E0,-7.635774091E-5,-9.315684438E-4,-1.435531769E-3
4.121030953E0,1.145371702E-3,-4.596756771E-3,-2.138023265E-4
4.123469963E0,-2.519816626E-3,-5.818486214E-3,1.007927116E-3
4.125909755E0,-2.519816626E-3,-5.818486214E-3,1.007927116E-3
4.128348817E0,-3.741546068E-3,-8.261945099E-3,2.229656558E-3
4.130786995E0,-3.741546068E-3,-9.483674541E-3,2.229656558E-3
4.133226005E0,-8.628463373E-3,-1.070540398E-2,2.229656558E-3
4.135665797E0,-7.406734396E-3,-1.314886287E-2,1.007927116E-3
4.138104807E0,-6.185004953E-3,-1.437059231E-2,-2.138023265E-4
4.140543036E0,-7.406734396E-3,-1.437059231E-2,-2.138023265E-4
4.142982047E0,-7.406734396E-3,-1.314886287E-2,1.007927116E-3
4.145421838E0,-6.185004953E-3,-1.681405120E-2,-2.138023265E-4
4.147860849E0,-1.229365170E-2,-1.681405120E-2,-1.435531769E-3
4.150299078E0,-1.107192226E-2,-1.925751008E-2,-2.138023265E-4
4.152738036E0,-1.473711058E-2,-1.925751008E-2,-2.138023265E-4
4.155177880E0,-1.595884003E-2,-1.925751008E-2,-2.138023265E-4
4.157616890E0,-1.718056761E-2,-2.292269841E-2,1.007927116E-3
4.160055067E0,-1.718056761E-2,-2.658788860E-2,1.007927116E-3
4.162494078E0,-1.962403022E-2,-3.025307506E-2,-2.138023265E-4
4.164933870E0,-1.595884003E-2,-2.903134376E-2,-2.138023265E-4
4.167372880E0,-1.962403022E-2,-3.147480637E-2,-1.435531769E-3
4.169811109E0,-1.718056761E-2,-3.636172414E-2,-1.435531769E-3
4.172250120E0,-1.351538114E-2,-3.880517930E-2,-1.435531769E-3
4.174689911E0,-1.351538114E-2,-4.369209707E-2,-2.138023265E-4
4.177128922E0,-1.229365170E-2,-4.491382837E-2,-2.138023265E-4
4.179567151E0,-8.628463373E-3,-4.857901484E-2,-2.138023265E-4
4.182006161E0,-7.406734396E-3,-5.346593261E-2,-1.435531769E-3
4.184445953E0,-4.963275511E-3,-5.590939522E-2,-1.435531769E-3
4.186884963E0,-2.519816626E-3,-5.835285038E-2,-1.435531769E-3
4.189323140E0,-1.298087183E-3,-6.323976815E-2,-3.878990654E-3
4.191762151E0,3.588830587E-3,-6.446149945E-2,-3.878990654E-3
4.194201995E0,1.145371702E-3,-6.568323076E-2,-3.878990654E-3
4.196641005E0,3.588830587E-3,-6.690495461E-2,-3.878990654E-3
4.199079182E0,4.810560029E-3,-6.690495461E-2,-2.657261211E-3
4.201518192E0,4.810560029E-3,-6.812668592E-2,-3.878990654E-3
4.203957984E0,3.588830587E-3,-7.301360369E-2,-7.544178981E-3
4.206396995E0,3.588830587E-3,-6.934841722E-2,-6.322449539E-3
4.208835224E0,3.588830587E-3,-7.057014108E-2,-7.544178981E-3
4.211274234E0,3.588830587E-3,-6.690495461E-2,-8.765907958E-3
4.213714026E0,3.588830587E-3,-6.201804429E-2,-7.544178981E-3
4.216153036E0,6.032289471E-3,-6.201804429E-2,-7.544178981E-3
4.218591265E0,6.032289471E-3,-5.835285038E-2,-7.544178981E-3
4.221030276E0,7.254018914E-3,-5.468766391E-2,-8.765907958E-3
4.223470067E0,7.254018914E-3,-4.980074614E-2,-8.765907958E-3
4.225909078E0,9.697478265E-3,-4.735728726E-2,-1.243109629E-2
4.228347255E0,9.697478265E-3,-4.613555968E-2,-1.243109629E-2
4.230786265E0,1.091920771E-2,-4.124864191E-2,-1.120936684E-2
4.233226057E0,1.336266659E-2,-3.269653395E-2,-1.120936684E-2
4.235665067E0,1.214093715E-2,-2.903134376E-2,-1.120936684E-2
4.238103297E0,1.336266659E-2,-2.658788860E-2,-1.243109629E-2
4.240542307E0,1.458439603E-2,-2.414442599E-2,-1.120936684E-2
4.242982099E0,1.458439603E-2,-2.047923952E-2,-1.365282573E-2
4.245421109E0,1.336266659E-2,-1.314886287E-2,-1.243109629E-2
4.247859338E0,1.458439603E-2,-1.192713343E-2,-1.243109629E-2
4.250298349E0,1.336266659E-2,-1.070540398E-2,-1.365282573E-2
4.252738140E0,1.580612548E-2,-5.818486214E-3,-1.120936684E-2
4.255177151E0,1.580612548E-2,-3.375027329E-3,-1.120936684E-2
4.257615380E0,1.214093715E-2,2.901609987E-4,-1.120936684E-2
4.260054338E0,1.091920771E-2,-2.153297886E-3,-1.243109629E-2
4.262494182E0,8.475748822E-3,5.177078769E-3,-9.987637401E-3
4.264933140E0,6.032289471E-3,1.511890441E-3,-9.987637401E-3
4.267371370E0,3.588830587E-3,5.177078769E-3,-8.765907958E-3
4.269810380E0,2.367101144E-3,1.006399654E-2,-6.322449539E-3
4.272250172E0,-2.519816626E-3,1.511890441E-3,-1.120936684E-2
4.274689182E0,-2.519816626E-3,7.620537654E-3,-7.544178981E-3
4.277127411E0,-6.185004953E-3,8.842267096E-3,-6.322449539E-3
4.279566422E0,-7.406734396E-3,7.620537654E-3,-7.544178981E-3
4.282006213E0,-7.406734396E-3,1.128572598E-2,-6.322449539E-3
4.284445224E0,-9.850192815E-3,1.128572598E-2,-5.100720096E-3
4.286883453E0,-9.850192815E-3,1.372918487E-2,-5.100720096E-3
4.289322411E0,-1.229365170E-2,1.006399654E-2,-5.100720096E-3
4.291762255E0,-1.351538114E-2,1.495091431E-2,-3.878990654E-3
4.294201265E0,-1.595884003E-2,1.983783208E-2,-3.878990654E-3
4.296639442E0,-1.718056761E-2,1.006399654E-2,-6.322449539E-3
4.299078453E0,-1.229365170E-2,1.372918487E-2,-1.435531769E-3
4.301518245E0,-1.595884003E-2,1.372918487E-2,-1.435531769E-3
4.303957255E0,-1.351538114E-2,1.006399654E-2,-1.435531769E-3
4.306395484E0,-1.718056761E-2,7.620537654E-3,-2.657261211E-3
4.308834495E0,-1.718056761E-2,7.620537654E-3,-1.435531769E-3
4.311274286E0,-1.473711058E-2,5.177078769E-3,1.007927116E-3
4.313713297E0,-1.595884003E-2,2.733619884E-3,2.229656558E-3
4.316151526E0,-1.473711058E-2,1.511890441E-3,1.007927116E-3
4.318590536E0,-1.473711058E-2,-2.153297886E-3,2.229656558E-3
4.321030328E0,-1.595884003E-2,-7.040215656E-3,3.451386001E-3
4.323469338E0,-1.595884003E-2,-1.070540398E-2,4.673115443E-3
4.325907515E0,-1.595884003E-2,-1.437059231E-2,4.673115443E-3
4.328346526E0,-1.473711058E-2,-1.925751008E-2,4.673115443E-3
4.330786317E0,-1.473711058E-2,-2.170096897E-2,2.229656558E-3
4.333225328E0,-1.473711058E-2,-2.292269841E-2,5.894844886E-3
4.335663557E0,-1.473711058E-2,-2.292269841E-2,8.338304237E-3
4.338102567E0,-1.840229891E-2,-2.903134376E-2,5.894844886E-3
4.340542359E0,-1.473711058E-2,-2.780961618E-2,5.894844886E-3
4.342981370E0,-1.351538114E-2,-2.780961618E-2,5.894844886E-3
4.345419599E0,-1.595884003E-2,-2.658788860E-2,8.338304237E-3
4.347858609E0,-1.473711058E-2,-2.780961618E-2,8.338304237E-3
4.350298401E0,-1.351538114E-2,-2.780961618E-2,5.894844886E-3
4.352737411E0,-1.595884003E-2,-3.025307506E-2,4.673115443E-3
4.355175588E0,-1.229365170E-2,-2.658788860E-2,4.673115443E-3
4.357614599E0,-1.229365170E-2,-2.170096897E-2,5.894844886E-3
4.360054390E0,-1.107192226E-2,-2.536615729E-2,4.673115443E-3
4.362493401E0,-9.850192815E-3,-2.047923952E-2,3.451386001E-3
4.364931630E0,-8.628463373E-3,-1.437059231E-2,4.673115443E-3
4.367370640E0,-7.406734396E-3,-1.314886287E-2,3.451386001E-3
4.369810432E0,-7.406734396E-3,-1.437059231E-2,2.229656558E-3
4.372249442E0,-4.963275511E-3,-1.192713343E-2,3.451386001E-3
4.374687672E0,-3.741546068E-3,-7.040215656E-3,1.007927116E-3
4.377126682E0,-1.298087183E-3,-1.070540398E-2,2.229656558E-3
4.379566474E0,-4.963275511E-3,-1.070540398E-2,-2.138023265E-4
4.382005484E0,-2.519816626E-3,-3.375027329E-3,-2.138023265E-4
4.384443713E0,1.145371702E-3,-5.818486214E-3,-2.138023265E-4
4.386882724E0,-7.635774091E-5,-3.375027329E-3,-2.657261211E-3
4.389322515E0,1.145371702E-3,-4.596756771E-3,-2.657261211E-3
4.391761526E0,1.145371702E-3,-5.818486214E-3,-3.878990654E-3
4.394199703E0,-1.298087183E-3,-4.596756771E-3,-3.878990654E-3
4.396638713E0,-7.635774091E-5,-3.375027329E-3,-2.657261211E-3
4.399078505E0,2.367101144E-3,-4.596756771E-3,-2.657261211E-3
4.401517515E0,1.145371702E-3,-5.818486214E-3,-2.657261211E-3
4.403955745E0,1.145371702E-3,-8.261945099E-3,-6.322449539E-3
4.406394755E0,3.588830587E-3,-9.483674541E-3,-3.878990654E-3
4.408834547E0,-7.635774091E-5,-7.040215656E-3,-1.435531769E-3
4.411273557E0,-7.635774091E-5,-9.483674541E-3,-2.657261211E-3
4.413711786E0,-3.741546068E-3,-9.483674541E-3,-2.657261211E-3
4.416150797E0,-2.519816626E-3,-1.192713343E-2,-2.657261211E-3
4.418590588E0,-1.298087183E-3,-1.192713343E-2,-5.100720096E-3
4.421029599E0,-1.298087183E-3,-1.192713343E-2,-5.100720096E-3
4.423467776E0,-4.963275511E-3,-1.559232175E-2,-6.322449539E-3
4.425906786E0,-3.741546068E-3,-1.437059231E-2,-3.878990654E-3
4.428346578E0,-1.298087183E-3,-1.437059231E-2,-3.878990654E-3
4.430785588E0,-1.298087183E-3,-1.681405120E-2,-5.100720096E-3
4.433223817E0,-6.185004953E-3,-1.925751008E-2,-5.100720096E-3
4.435662828E0,-4.963275511E-3,-1.803578064E-2,-3.878990654E-3
4.438102620E0,-2.519816626E-3,-1.803578064E-2,-5.100720096E-3
4.440541630E0,-4.963275511E-3,-1.437059231E-2,-5.100720096E-3
4.442979859E0,-6.185004953E-3,-1.681405120E-2,-7.544178981E-3
4.445418870E0,-3.741546068E-3,-1.192713343E-2,-5.100720096E-3
4.447858661E0,-4.963275511E-3,-1.437059231E-2,-5.100720096E-3
4.450297672E0,-4.963275511E-3,-1.437059231E-2,-3.878990654E-3
4.452735849E0,-3.741546068E-3,-1.314886287E-2,-3.878990654E-3
4.455174859E0,-4.963275511E-3,-1.070540398E-2,-3.878990654E-3
4.457614651E0,-1.298087183E-3,-1.314886287E-2,-2.657261211E-3
4.460053661E0,-3.741546068E-3,-1.437059231E-2,-3.878990654E-3
4.462491890E0,-2.519816626E-3,-1.925751008E-2,-3.878990654E-3
4.464930901E0,-1.298087183E-3,-1.192713343E-2,-2.657261211E-3
4.467370692E0,-1.298087183E-3,-1.314886287E-2,-1.435531769E-3
4.469809703E0,-7.635774091E-5,-7.040215656E-3,-1.435531769E-3
4.472247932E0,-3.741546068E-3,-8.261945099E-3,-2.657261211E-3
4.474686942E0,-3.741546068E-3,-7.040215656E-3,-2.657261211E-3
4.477126734E0,-1.298087183E-3,-4.596756771E-3,-2.657261211E-3
4.479565745E0,-7.635774091E-5,-5.818486214E-3,-2.657261211E-3
4.482003922E0,-1.298087183E-3,-2.153297886E-3,-1.435531769E-3
4.484442932E0,-4.963275511E-3,1.511890441E-3,-1.435531769E-3
4.486882776E0,-2.519816626E-3,6.398808211E-3,-2.657261211E-3
4.489321734E0,-4.963275511E-3,8.842267096E-3,-2.657261211E-3
4.491759963E0,-3.741546068E-3,1.006399654E-2,-2.138023265E-4
4.494198974E0,-1.298087183E-3,1.495091431E-2,-2.138023265E-4
4.496638765E0,-3.741546068E-3,1.617264375E-2,-1.435531769E-3
4.499077776E0,-4.963275511E-3,1.861610264E-2,-2.657261211E-3
4.501516005E0,-6.185004953E-3,2.105956152E-2,-2.138023265E-4
4.503955015E0,-2.519816626E-3,2.594647929E-2,-2.138023265E-4
4.506394807E0,-4.963275511E-3,2.961166576E-2,-2.138023265E-4
4.508833817E0,-7.406734396E-3,2.716821060E-2,-1.435531769E-3
4.511271995E0,-6.185004953E-3,2.838993818E-2,-1.435531769E-3
4.513711005E0,-4.963275511E-3,2.838993818E-2,-2.138023265E-4
4.516150797E0,-2.519816626E-3,3.449858353E-2,1.007927116E-3
4.518589807E0,-6.185004953E-3,3.083339706E-2,1.007927116E-3
4.521028036E0,-8.628463373E-3,3.083339706E-2,1.007927116E-3
4.523467047E0,-6.185004953E-3,3.205512837E-2,1.007927116E-3
4.525906838E0,-9.850192815E-3,3.205512837E-2,2.229656558E-3
4.528345849E0,-6.185004953E-3,3.083339706E-2,2.229656558E-3
4.530784078E0,-8.628463373E-3,3.205512837E-2,2.229656558E-3
4.533223088E0,-7.406734396E-3,2.961166576E-2,2.229656558E-3
4.535662880E0,-9.850192815E-3,2.716821060E-2,-2.138023265E-4
4.538101890E0,-8.628463373E-3,2.961166576E-2,-2.138023265E-4
4.540540067E0,-8.628463373E-3,2.716821060E-2,-2.138023265E-4
4.542979078E0,-8.628463373E-3,2.838993818E-2,1.007927116E-3
4.545418870E0,-8.628463373E-3,2.716821060E-2,-2.138023265E-4
4.547857880E0,-8.628463373E-3,2.716821060E-2,-2.138023265E-4
4.550296109E0,-6.185004953E-3,2.716821060E-2,-2.138023265E-4
4.552735120E0,-1.107192226E-2,2.594647929E-2,-2.138023265E-4
4.555174911E0,-9.850192815E-3,2.594647929E-2,-2.138023265E-4
4.557613922E0,-1.229365170E-2,2.716821060E-2,1.007927116E-3
4.560052151E0,-1.107192226E-2,2.350302041E-2,-1.435531769E-3
4.562491161E0,-1.229365170E-2,1.983783208E-2,-1.435531769E-3
4.564930953E0,-1.107192226E-2,2.105956152E-2,-1.435531769E-3
4.567369963E0,-1.351538114E-2,2.105956152E-2,-1.435531769E-3
4.569808140E0,-1.351538114E-2,1.739437319E-2,-1.435531769E-3
4.572247151E0,-1.595884003E-2,1.495091431E-2,-2.657261211E-3
4.574686942E0,-1.473711058E-2,1.617264375E-2,-1.435531769E-3
4.577125953E0,-1.962403022E-2,1.006399654E-2,-5.100720096E-3
4.579564182E0,-2.328921668E-2,1.250745542E-2,-2.657261211E-3
4.582003192E0,-1.840229891E-2,1.006399654E-2,-1.435531769E-3
4.584442984E0,-2.084575780E-2,1.006399654E-2,-1.435531769E-3
4.586881995E0,-2.206748538E-2,1.006399654E-2,-1.435531769E-3
4.589320224E0,-2.206748538E-2,6.398808211E-3,-2.138023265E-4
4.591759182E0,-2.328921668E-2,6.398808211E-3,-1.435531769E-3
4.594199026E0,-2.573267557E-2,2.733619884E-3,-1.435531769E-3
4.596638036E0,-2.573267557E-2,2.901609987E-4,-2.138023265E-4
4.599076213E0,-2.573267557E-2,-9.315684438E-4,-1.435531769E-3
4.601515224E0,-2.451094799E-2,-9.315684438E-4,-1.435531769E-3
4.603955015E0,-2.451094799E-2,-9.315684438E-4,-1.435531769E-3
4.606394026E0,-2.206748538E-2,-4.596756771E-3,-1.435531769E-3
4.608832255E0,-2.328921668E-2,-4.596756771E-3,-2.138023265E-4
4.611271265E0,-2.573267557E-2,-9.483674541E-3,-1.435531769E-3
4.613711057E0,-2.206748538E-2,-8.261945099E-3,-1.435531769E-3
4.616150067E0,-2.206748538E-2,-9.483674541E-3,-2.138023265E-4
4.618588297E0,-1.962403022E-2,-1.070540398E-2,-2.138023265E-4
4.621027255E0,-1.962403022E-2,-1.192713343E-2,-1.435531769E-3
4.623467099E0,-2.084575780E-2,-1.559232175E-2,-1.435531769E-3
4.625906109E0,-1.718056761E-2,-9.483674541E-3,-2.138023265E-4
4.628344286E0,-1.718056761E-2,-1.925751008E-2,-2.138023265E-4
4.630783297E0,-1.595884003E-2,-1.437059231E-2,-2.138023265E-4
4.633223088E0,-1.595884003E-2,-1.681405120E-2,2.229656558E-3
4.635662099E0,-1.473711058E-2,-1.803578064E-2,-2.138023265E-4
4.638100328E0,-1.351538114E-2,-2.292269841E-2,-2.138023265E-4
4.640539338E0,-1.107192226E-2,-1.681405120E-2,-2.138023265E-4
4.642979130E0,-1.107192226E-2,-1.803578064E-2,1.007927116E-3
4.645418140E0,-1.107192226E-2,-1.803578064E-2,2.229656558E-3
4.647856317E0,-6.185004953E-3,-1.803578064E-2,2.229656558E-3
4.650295328E0,-7.406734396E-3,-2.047923952E-2,-2.138023265E-4
4.652735120E0,-7.406734396E-3,-1.803578064E-2,1.007927116E-3
4.655174130E0,-2.519816626E-3,-1.437059231E-2,2.229656558E-3
4.657612359E0,-1.298087183E-3,-1.559232175E-2,1.007927116E-3
4.660051370E0,-1.298087183E-3,-1.559232175E-2,1.007927116E-3
4.662491161E0,-2.519816626E-3,-1.314886287E-2,1.007927116E-3
4.664930172E0,1.145371702E-3,-8.261945099E-3,2.229656558E-3
4.667368401E0,6.032289471E-3,-7.040215656E-3,3.451386001E-3
4.669807359E0,6.032289471E-3,-9.483674541E-3,2.229656558E-3
4.672247203E0,4.810560029E-3,-7.040215656E-3,1.007927116E-3
4.674686213E0,6.032289471E-3,-4.596756771E-3,2.229656558E-3
4.677124390E0,4.810560029E-3,-3.375027329E-3,2.229656558E-3
4.679563401E0,6.032289471E-3,-9.315684438E-4,2.229656558E-3
4.682003192E0,6.032289471E-3,-9.315684438E-4,2.229656558E-3
4.684442203E0,6.032289471E-3,2.901609987E-4,3.451386001E-3
4.686880432E0,4.810560029E-3,1.511890441E-3,2.229656558E-3
4.689319442E0,4.810560029E-3,1.511890441E-3,2.229656558E-3
4.691759234E0,7.254018914E-3,1.511890441E-3,3.451386001E-3
4.694198245E0,3.588830587E-3,3.955349326E-3,3.451386001E-3
4.696636474E0,-7.635774091E-5,5.177078769E-3,2.229656558E-3
4.699075432E0,-3.741546068E-3,1.511890441E-3,3.451386001E-3
4.701515276E0,-2.519816626E-3,3.955349326E-3,3.451386001E-3
4.703954234E0,-8.628463373E-3,-3.375027329E-3,-2.138023265E-4
4.706392463E0,-6.185004953E-3,3.955349326E-3,2.229656558E-3
4.708831474E0,-6.185004953E-3,-9.315684438E-4,2.229656558E-3
4.711271265E0,-9.850192815E-3,-3.375027329E-3,3.451386001E-3
4.713710276E0,-8.628463373E-3,-2.153297886E-3,4.673115443E-3
4.716148505E0,-1.107192226E-2,-4.596756771E-3,3.451386001E-3
4.718587515E0,-1.107192226E-2,-4.596756771E-3,3.451386001E-3
4.721027307E0,-7.406734396E-3,-3.375027329E-3,4.673115443E-3
4.723466317E0,-7.406734396E-3,-5.818486214E-3,4.673115443E-3
4.725904495E0,-9.850192815E-3,-7.040215656E-3,3.451386001E-3
4.728343505E0,-1.107192226E-2,-1.437059231E-2,2.229656558E-3
4.730783297E0,-9.850192815E-3,-1.314886287E-2,2.229656558E-3
4.733222307E0,-1.107192226E-2,-1.681405120E-2,2.229656558E-3
4.735660536E0,-8.628463373E-3,-1.925751008E-2,3.451386001E-3
4.738099547E0,-8.628463373E-3,-2.047923952E-2,1.007927116E-3
4.740539338E0,-6.185004953E-3,-2.292269841E-2,-2.138023265E-4
4.742978349E0,-6.185004953E-3,-2.780961618E-2,-2.138023265E-4
4.745416578E0,-3.741546068E-3,-2.780961618E-2,1.007927116E-3
4.747855536E0,-3.741546068E-3,-3.269653395E-2,-2.138023265E-4
4.750295328E0,-2.519816626E-3,-3.513999283E-2,-2.138023265E-4
4.752734338E0,-1.298087183E-3,-4.124864191E-2,-2.657261211E-3
4.755172567E0,3.588830587E-3,-3.758345172E-2,-2.657261211E-3
4.757611578E0,2.367101144E-3,-4.613555968E-2,-3.878990654E-3
4.760051370E0,4.810560029E-3,-4.491382837E-2,-2.657261211E-3
4.762490380E0,2.367101144E-3,-5.102247745E-2,-5.100720096E-3
4.764928609E0,3.588830587E-3,-4.735728726E-2,-3.878990654E-3
4.767367620E0,8.475748822E-3,-4.491382837E-2,-2.657261211E-3
4.769807411E0,9.697478265E-3,-5.468766391E-2,-2.657261211E-3
4.772246422E0,7.254018914E-3,-5.468766391E-2,-5.100720096E-3
4.774684599E0,9.697478265E-3,-5.224420503E-2,-3.878990654E-3
4.777123609E0,9.697478265E-3,-5.590939522E-2,-5.100720096E-3
4.779563401E0,1.336266659E-2,-4.735728726E-2,-2.138023265E-4
4.782002411E0,1.336266659E-2,-5.102247745E-2,-2.138023265E-4
4.784440640E0,1.091920771E-2,-4.980074614E-2,-2.138023265E-4
4.786879651E0,1.214093715E-2,-4.980074614E-2,-1.435531769E-3
4.789319442E0,1.214093715E-2,-4.857901484E-2,-1.435531769E-3
4.791758453E0,1.214093715E-2,-4.613555968E-2,-2.138023265E-4
4.794196630E0,1.214093715E-2,-4.491382837E-2,1.007927116E-3
4.796635640E0,1.091920771E-2,-4.369209707E-2,-2.138023265E-4
4.799075484E0,1.214093715E-2,-4.124864191E-2,-2.138023265E-4
4.801514442E0,1.214093715E-2,-4.002691060E-2,-2.138023265E-4
4.803952672E0,7.254018914E-3,-3.513999283E-2,2.229656558E-3
4.806391682E0,6.032289471E-3,-3.391826153E-2,1.007927116E-3
4.808831474E0,6.032289471E-3,-3.269653395E-2,1.007927116E-3
4.811270484E0,4.810560029E-3,-2.903134376E-2,1.007927116E-3
4.813708713E0,1.145371702E-3,-2.903134376E-2,1.007927116E-3
4.816147724E0,-7.635774091E-5,-2.170096897E-2,2.229656558E-3
4.818587515E0,-3.741546068E-3,-2.292269841E-2,1.007927116E-3
4.821026526E0,-3.741546068E-3,-2.170096897E-2,1.007927116E-3
4.823464703E0,-6.185004953E-3,-2.047923952E-2,1.007927116E-3
4.825903713E0,-7.406734396E-3,-1.925751008E-2,1.007927116E-3
4.828343505E0,-7.406734396E-3,-1.803578064E-2,1.007927116E-3
4.830782515E0,-9.850192815E-3,-1.681405120E-2,2.229656558E-3
4.833220745E0,-1.107192226E-2,-1.681405120E-2,3.451386001E-3
4.835659755E0,-1.107192226E-2,-1.559232175E-2,4.673115443E-3
4.838099547E0,-1.107192226E-2,-1.559232175E-2,3.451386001E-3
