"Time (s)","Acceleration x (m/s^2)","Acceleration y (m/s^2)","Acceleration z (m/s^2)"
1.436100200E-2,2.392822690E-2,8.793623000E-2,9.771689415E0
1.659991200E-2,2.871387079E-2,9.272187948E-2,9.776474953E0
1.883611800E-2,3.828516230E-2,1.070788130E-1,9.795618057E0
2.107069600E-2,3.888336942E-2,1.166501045E-1,9.776474953E0
2.330712600E-2,3.349951655E-2,9.750752151E-2,9.776474953E0
2.554595700E-2,3.290131316E-2,8.315058798E-2,9.790832520E0
2.778704600E-2,4.307080805E-2,9.272187948E-2,9.776474953E0
3.001495100E-2,2.392822690E-2,1.070788130E-1,9.781260490E0
3.225268200E-2,2.811566554E-2,9.272187948E-2,9.809974670E0
3.448541000E-2,2.871387079E-2,9.272187948E-2,9.786046028E0
3.672393600E-2,2.392822690E-2,9.272187948E-2,9.766903877E0
3.895947100E-2,2.871387079E-2,9.272187948E-2,9.776474953E0
4.119622600E-2,2.392822690E-2,8.793623000E-2,9.776474953E0
4.343530000E-2,1.854437590E-2,8.315058798E-2,9.790832520E0
4.568359100E-2,3.828516230E-2,8.315058798E-2,9.753145218E0
4.791998100E-2,3.828516230E-2,8.793623000E-2,9.776474953E0
5.015728500E-2,4.307080805E-2,9.272187948E-2,9.781260490E0
5.238647200E-2,2.871387079E-2,9.272187948E-2,9.781260490E0
5.461114200E-2,4.307080805E-2,1.022931710E-1,9.786046028E0
5.684698200E-2,9.571290575E-3,9.750752151E-2,9.781260490E0
5.908593500E-2,4.307080805E-2,9.750752151E-2,9.776474953E0
6.133733800E-2,2.871387079E-2,1.022931710E-1,9.781260490E0
6.357342200E-2,1.435693540E-2,1.022931710E-1,9.781260490E0
6.581011700E-2,1.914258115E-2,9.272187948E-2,9.781260490E0
6.804394300E-2,3.828516230E-2,1.118644550E-1,9.795618057E0
7.027947800E-2,1.974078640E-2,1.070788130E-1,9.752547264E0
7.251531800E-2,5.742774159E-2,1.016949639E-1,9.814760208E0
7.475146300E-2,2.392822690E-2,9.272187948E-2,9.776474953E0
7.698797400E-2,3.349951655E-2,9.272187948E-2,9.762118340E0
7.922442400E-2,1.914258115E-2,1.022931710E-1,9.781260490E0
8.146093500E-2,2.871387079E-2,1.022931710E-1,9.790832520E0
8.369799600E-2,3.349951655E-2,1.166501045E-1,9.781260490E0
8.593408000E-2,2.871387079E-2,1.070788130E-1,9.795618057E0
8.816637900E-2,1.914258115E-2,8.315058798E-2,9.781260490E0
9.039330700E-2,2.392822690E-2,1.022931710E-1,9.786046028E0
9.264062200E-2,2.871387079E-2,8.315058798E-2,9.771689415E0
9.487023600E-2,3.828516230E-2,9.750752151E-2,9.757930756E0
9.710137700E-2,2.931207791E-2,1.022931710E-1,9.748359680E0
9.935064500E-2,2.871387079E-2,9.272187948E-2,9.766903877E0
1.015883760E-1,2.392822690E-2,8.793623000E-2,9.786046028E0
1.038281830E-1,1.435693540E-2,8.793623000E-2,9.781260490E0
1.060593240E-1,2.871387079E-2,1.022931710E-1,9.781260490E0
1.082955300E-1,3.828516230E-2,1.118644550E-1,9.776474953E0
1.105315530E-1,1.435693540E-2,9.750752151E-2,9.786046028E0
1.127685520E-1,2.871387079E-2,8.315058798E-2,9.781260490E0
1.150043920E-1,2.871387079E-2,9.750752151E-2,9.757332802E0
1.172407200E-1,3.828516230E-2,9.272187948E-2,9.795618057E0
1.194769260E-1,4.307080805E-2,9.750752151E-2,9.777072906E0
1.217124610E-1,2.871387079E-2,8.793623000E-2,9.766903877E0
1.239401830E-1,2.392822690E-2,8.793623000E-2,9.776474953E0
1.261750460E-1,4.307080805E-2,1.118644550E-1,9.786046028E0
1.284216290E-1,2.871387079E-2,8.315058798E-2,9.766903877E0
1.306597880E-1,2.871387079E-2,9.272187948E-2,9.766903877E0
1.328968480E-1,2.871387079E-2,7.836493850E-2,9.766903877E0
1.351303690E-1,1.914258115E-2,9.750752151E-2,9.766903877E0
1.373671850E-1,1.435693540E-2,9.272187948E-2,9.771689415E0
1.396042460E-1,1.914258115E-2,8.315058798E-2,9.776474953E0
1.418394140E-1,2.871387079E-2,8.315058798E-2,9.790832520E0
1.440756200E-1,2.392822690E-2,8.315058798E-2,9.786046028E0
1.463114590E-1,2.871387079E-2,7.836493850E-2,9.776474953E0
1.485480930E-1,3.349951655E-2,7.836493850E-2,9.776474953E0
1.507844210E-1,8.973085321E-3,6.879365444E-2,9.795618057E0
1.530209940E-1,2.871387079E-2,9.272187948E-2,9.771689415E0
1.552580540E-1,1.914258115E-2,8.315058798E-2,9.757332802E0
1.574941380E-1,2.392822690E-2,1.022931710E-1,9.786046028E0
1.597254610E-1,2.871387079E-2,9.272187948E-2,9.776474953E0
1.619494610E-1,2.871387079E-2,8.793623000E-2,9.762118340E0
1.642016580E-1,3.828516230E-2,8.315058798E-2,9.776474953E0
1.664381690E-1,2.392822690E-2,7.836493850E-2,9.776474953E0
1.686782810E-1,2.871387079E-2,8.315058798E-2,9.786046028E0
1.709106420E-1,3.349951655E-2,8.793623000E-2,9.762118340E0
1.731472140E-1,2.871387079E-2,9.750752151E-2,9.781260490E0
1.753842750E-1,3.349951655E-2,8.793623000E-2,9.786046028E0
1.776193820E-1,2.392822690E-2,1.022931710E-1,9.795618057E0
1.798556500E-1,1.914258115E-2,9.272187948E-2,9.790832520E0
1.820914900E-1,9.571290575E-3,8.793623000E-2,9.790832520E0
1.843280620E-1,2.871387079E-2,9.272187948E-2,9.771689415E0
1.865641460E-1,2.871387079E-2,1.070788130E-1,9.762118340E0
1.887979100E-1,1.914258115E-2,9.750752151E-2,9.781260490E0
1.910266090E-1,2.392822690E-2,1.070788130E-1,9.781260490E0
1.932742290E-1,1.914258115E-2,1.070788130E-1,9.781260490E0
1.955095190E-1,3.828516230E-2,1.070788130E-1,9.776474953E0
1.977482270E-1,1.435693540E-2,9.750752151E-2,9.805189133E0
1.999816860E-1,1.914258115E-2,1.022931710E-1,9.790832520E0
2.022181980E-1,9.571290575E-3,9.272187948E-2,9.781260490E0
2.044543430E-1,2.871387079E-2,8.315058798E-2,9.776474953E0
2.066907320E-1,2.871387079E-2,9.750752151E-2,9.771689415E0
2.089274880E-1,1.435693540E-2,9.750752151E-2,9.776474953E0
2.111642430E-1,1.914258115E-2,9.750752151E-2,9.795618057E0
2.133991680E-1,1.914258115E-2,9.272187948E-2,9.795618057E0
2.156356180E-1,1.914258115E-2,1.070788130E-1,9.771689415E0
2.178715190E-1,1.435693540E-2,9.272187948E-2,9.786046028E0
2.201082130E-1,2.392822690E-2,9.272187948E-2,9.795618057E0
2.223444190E-1,2.871387079E-2,9.272187948E-2,9.771689415E0
2.245808080E-1,1.435693540E-2,6.939185411E-2,9.762118340E0
2.268168920E-1,2.871387079E-2,8.793623000E-2,9.795618057E0
2.290492530E-1,2.392822690E-2,1.118644550E-1,9.781260490E0
2.312893040E-1,2.392822690E-2,8.793623000E-2,9.800403595E0
2.335253260E-1,4.307080805E-2,8.315058798E-2,9.772287369E0
2.357626920E-1,3.349951655E-2,8.315058798E-2,9.776474953E0
2.379965800E-1,3.349951655E-2,8.793623000E-2,9.757930756E0
2.402275370E-1,2.392822690E-2,1.022931710E-1,9.786046028E0
2.424707620E-1,4.307080805E-2,9.750752151E-2,9.781859398E0
2.447072730E-1,2.871387079E-2,9.750752151E-2,9.776474953E0
2.469459820E-1,2.871387079E-2,8.315058798E-2,9.776474953E0
2.491791970E-1,4.307080805E-2,7.836493850E-2,9.777072906E0
2.514157080E-1,2.392822690E-2,8.793623000E-2,9.771689415E0
2.536515470E-1,3.349951655E-2,6.879365444E-2,9.767501831E0
2.558881810E-1,2.871387079E-2,9.272187948E-2,9.771689415E0
2.581222510E-1,3.349951655E-2,8.315058798E-2,9.786046028E0
2.603527200E-1,3.349951655E-2,9.272187948E-2,9.786046028E0
2.625969820E-1,3.349951655E-2,1.022931710E-1,9.781260490E0
2.648345310E-1,2.811566554E-2,7.836493850E-2,9.795618057E0
2.670715310E-1,3.349951655E-2,8.793623000E-2,9.786046028E0
2.693057230E-1,1.914258115E-2,1.070788130E-1,9.771689415E0
2.715416850E-1,3.349951655E-2,8.793623000E-2,9.771689415E0
2.737782570E-1,3.828516230E-2,9.272187948E-2,9.786046028E0
2.760143410E-1,2.392822690E-2,9.750752151E-2,9.781260490E0
2.782478000E-1,2.392822690E-2,8.793623000E-2,9.790832520E0
2.804764990E-1,9.571290575E-3,1.022931710E-1,9.790832520E0
2.827241190E-1,3.828516230E-2,9.750752151E-2,9.809974670E0
2.849594700E-1,2.871387079E-2,9.750752151E-2,9.776474953E0
2.871981780E-1,1.495514158E-2,1.166501045E-1,9.776474953E0
2.894316990E-1,2.871387079E-2,9.272187948E-2,9.771689415E0
2.916683940E-1,3.828516230E-2,9.272187948E-2,9.790832520E0
2.939042950E-1,4.307080805E-2,9.272187948E-2,9.786644936E0
2.961408670E-1,1.435693540E-2,1.070788130E-1,9.771689415E0
2.983781100E-1,3.349951655E-2,8.315058798E-2,9.786046028E0
3.006143160E-1,2.811566554E-2,8.315058798E-2,9.790832520E0
3.028496680E-1,2.871387079E-2,9.272187948E-2,9.771689415E0
3.050856300E-1,2.871387079E-2,8.793623000E-2,9.766903877E0
3.073215310E-1,1.854437590E-2,6.879365444E-2,9.776474953E0
3.095558440E-1,3.349951655E-2,9.272187948E-2,9.786046028E0
3.117846050E-1,1.435693540E-2,7.417750359E-2,9.762118340E0
3.140307590E-1,3.349951655E-2,7.836493850E-2,9.776474953E0
3.162670260E-1,1.914258115E-2,9.272187948E-2,9.790832520E0
3.185065890E-1,1.914258115E-2,8.793623000E-2,9.776474953E0
3.207394390E-1,2.392822690E-2,8.793623000E-2,9.752547264E0
3.229755840E-1,2.392822690E-2,1.022931710E-1,9.757332802E0
3.252116680E-1,2.871387079E-2,8.315058798E-2,9.771689415E0
3.274453710E-1,6.221338734E-2,8.255238086E-2,9.772287369E0
3.296730930E-1,3.349951655E-2,9.272187948E-2,9.786046028E0
3.319206520E-1,4.307080805E-2,9.750752151E-2,9.790832520E0
3.341572240E-1,2.392822690E-2,8.793623000E-2,9.781260490E0
3.363971530E-1,3.828516230E-2,7.836493850E-2,9.781260490E0
3.386266450E-1,4.307080805E-2,9.212367237E-2,9.800403595E0
3.408541230E-1,3.349951655E-2,9.750752151E-2,9.790832520E0
3.431032070E-1,3.349951655E-2,1.166501045E-1,9.781260490E0
3.453380710E-1,2.392822690E-2,9.750752151E-2,9.781260490E0
3.475744610E-1,2.392822690E-2,1.070788130E-1,9.781260490E0
3.497984600E-1,2.392822690E-2,9.272187948E-2,9.786046028E0
3.520474220E-1,3.349951655E-2,9.750752151E-2,9.766903877E0
3.542844210E-1,4.307080805E-2,9.272187948E-2,9.781260490E0
3.565224580E-1,1.435693540E-2,9.272187948E-2,9.776474953E0
3.587555520E-1,1.914258115E-2,7.836493850E-2,9.762118340E0
3.609915750E-1,1.854437590E-2,7.836493850E-2,9.790832520E0
3.632279640E-1,3.349951655E-2,9.272187948E-2,9.776474953E0
3.654642920E-1,1.435693540E-2,8.793623000E-2,9.781260490E0
3.676901220E-1,2.392822690E-2,9.750752151E-2,9.790832520E0
3.699294410E-1,2.392822690E-2,9.750752151E-2,9.776474953E0
3.721627780E-1,3.828516230E-2,9.272187948E-2,9.786046028E0
3.743975810E-1,1.914258115E-2,8.793623000E-2,9.776474953E0
3.766327490E-1,1.914258115E-2,9.750752151E-2,9.776474953E0
3.788697490E-1,1.016949583E-2,1.124626622E-1,9.766903877E0
3.811064430E-1,2.333002165E-2,6.879365444E-2,9.771689415E0
3.833428320E-1,8.973085321E-3,8.315058798E-2,9.795618057E0
3.855793430E-1,1.435693540E-2,1.022931710E-1,9.762118340E0
3.878164040E-1,1.435693540E-2,8.793623000E-2,9.771689415E0
3.900524880E-1,4.307080805E-2,9.272187948E-2,9.772287369E0
3.922880830E-1,4.307080805E-2,9.272187948E-2,9.743574142E0
3.945249610E-1,2.871387079E-2,8.793623000E-2,9.771689415E0
3.967631810E-1,2.871387079E-2,8.793623000E-2,9.776474953E0
3.990082980E-1,2.871387079E-2,9.272187948E-2,9.776474953E0
4.012355320E-1,2.871387079E-2,8.315058798E-2,9.786046028E0
4.034835790E-1,2.392822690E-2,1.070788130E-1,9.771689415E0
4.057172830E-1,3.349951655E-2,1.022931710E-1,9.781260490E0
4.079572720E-1,3.828516230E-2,1.118644550E-1,9.781260490E0
4.101897560E-1,2.392822690E-2,9.272187948E-2,9.771689415E0
4.124260230E-1,3.349951655E-2,9.272187948E-2,9.766903877E0
4.146618020E-1,3.349951655E-2,9.272187948E-2,9.762118340E0
4.168981910E-1,2.392822690E-2,9.750752151E-2,9.762118340E0
4.191347020E-1,1.914258115E-2,8.793623000E-2,9.781260490E0
4.213707860E-1,1.914258115E-2,9.750752151E-2,9.766903877E0
4.236071750E-1,3.828516230E-2,1.022931710E-1,9.766903877E0
4.258441750E-1,1.914258115E-2,9.750752151E-2,9.757332802E0
4.280798920E-1,2.871387079E-2,8.315058798E-2,9.771689415E0
4.303171360E-1,3.349951655E-2,1.022931710E-1,9.766903877E0
4.325517560E-1,3.828516230E-2,9.750752151E-2,9.790832520E0
4.347883280E-1,3.349951655E-2,8.793623000E-2,9.766903877E0
4.370243510E-1,1.914258115E-2,8.315058798E-2,9.781260490E0
4.392612280E-1,1.854437590E-2,7.357929647E-2,9.795618057E0
4.414982890E-1,3.349951655E-2,1.022931710E-1,9.790832520E0
4.437343730E-1,3.828516230E-2,9.750752151E-2,9.772287369E0
4.459696020E-1,1.914258115E-2,7.836493850E-2,9.781260490E0
4.482023900E-1,1.914258115E-2,1.022931710E-1,9.766903877E0
4.504301120E-1,2.871387079E-2,1.070788130E-1,9.776474953E0
4.526782200E-1,1.435693540E-2,9.332008660E-2,9.762118340E0
4.549148540E-1,3.349951655E-2,1.070788130E-1,9.790832520E0
4.571538060E-1,5.264209956E-2,8.315058798E-2,9.762716293E0
4.593875100E-1,1.914258115E-2,9.272187948E-2,9.800403595E0
4.616244480E-1,3.349951655E-2,8.315058798E-2,9.757930756E0
4.638595560E-1,2.871387079E-2,9.272187948E-2,9.781260490E0
4.660957010E-1,3.349951655E-2,8.793623000E-2,9.786046028E0
4.683290380E-1,1.914258115E-2,9.272187948E-2,9.776474953E0
4.705566380E-1,3.290131316E-2,8.315058798E-2,9.795618057E0
4.728046850E-1,3.768695518E-2,7.836493850E-2,9.805189133E0
4.750399140E-1,2.333002165E-2,7.836493850E-2,9.795618057E0
4.772770360E-1,2.392822690E-2,9.272187948E-2,9.762118340E0
4.795140970E-1,1.914258115E-2,9.750752151E-2,9.766903877E0
4.817494480E-1,2.871387079E-2,9.750752151E-2,9.790832520E0
4.839863860E-1,2.392822690E-2,9.272187948E-2,9.762118340E0
4.862219220E-1,3.349951655E-2,9.272187948E-2,9.776474953E0
4.884582500E-1,9.571290575E-3,8.853443712E-2,9.771689415E0
4.906945780E-1,2.392822690E-2,9.750752151E-2,9.781260490E0
4.929306620E-1,3.349951655E-2,8.793623000E-2,9.776474953E0
4.951674780E-1,2.392822690E-2,9.750752151E-2,9.762118340E0
4.974043560E-1,1.435693540E-2,8.315058798E-2,9.766903877E0
4.996398900E-1,3.349951655E-2,1.022931710E-1,9.771689415E0
5.018756690E-1,2.871387079E-2,1.118644550E-1,9.776474953E0
5.041110810E-1,4.366901144E-2,1.118644550E-1,9.767501831E0
5.063453350E-1,3.828516230E-2,7.836493850E-2,9.777072906E0
5.085845310E-1,3.828516230E-2,1.070788130E-1,9.790832520E0
5.108213480E-1,4.307080805E-2,9.750752151E-2,9.781859398E0
5.130593230E-1,2.871387079E-2,9.272187948E-2,9.781260490E0
5.152944920E-1,3.349951655E-2,8.793623000E-2,9.771689415E0
5.175296610E-1,3.828516230E-2,8.315058798E-2,9.772287369E0
5.197653180E-1,1.914258115E-2,9.750752151E-2,9.790832520E0
5.220018900E-1,3.349951655E-2,8.793623000E-2,9.776474953E0
5.242382180E-1,3.349951655E-2,9.750752151E-2,9.800403595E0
5.264746070E-1,2.871387079E-2,9.272187948E-2,9.776474953E0
5.287106300E-1,3.828516230E-2,7.357929647E-2,9.772287369E0
5.309472630E-1,2.392822690E-2,9.750752151E-2,9.781260490E0
5.331843240E-1,2.392822690E-2,9.272187948E-2,9.776474953E0
5.354196750E-1,4.725824669E-2,7.357929647E-2,9.781859398E0
5.376558200E-1,3.828516230E-2,1.070788130E-1,9.781260490E0
5.398920880E-1,2.871387079E-2,8.315058798E-2,9.757930756E0
5.421240820E-1,3.349951655E-2,8.315058798E-2,9.767501831E0
5.443473490E-1,2.871387079E-2,8.315058798E-2,9.781260490E0
5.466005230E-1,2.931207791E-2,1.214357466E-1,9.752547264E0
5.488374000E-1,3.349951655E-2,8.793623000E-2,9.776474953E0
5.510787940E-1,2.871387079E-2,8.793623000E-2,9.762118340E0
5.533098120E-1,2.871387079E-2,9.272187948E-2,9.781260490E0
5.555456520E-1,4.307080805E-2,8.793623000E-2,9.786644936E0
5.577819790E-1,4.785645381E-2,1.112662554E-1,9.786644936E0
5.600184910E-1,2.871387079E-2,7.836493850E-2,9.771689415E0
5.622547580E-1,3.349951655E-2,8.315058798E-2,9.767501831E0
5.644911480E-1,3.828516230E-2,9.272187948E-2,9.777072906E0
5.667272310E-1,3.828516230E-2,8.315058798E-2,9.762716293E0
5.689643530E-1,2.871387079E-2,8.315058798E-2,9.776474953E0
5.711955540E-1,2.392822690E-2,8.315058798E-2,9.771689415E0
5.734196140E-1,2.871387079E-2,9.272187948E-2,9.790832520E0
5.756715680E-1,1.914258115E-2,8.793623000E-2,9.790832520E0
5.779082010E-1,2.871387079E-2,8.315058798E-2,9.781260490E0
5.801488010E-1,1.914258115E-2,8.793623000E-2,9.781260490E0
5.823811620E-1,1.914258115E-2,1.022931710E-1,9.771689415E0
5.846184060E-1,1.854437590E-2,7.836493850E-2,9.800403595E0
5.868541850E-1,2.871387079E-2,1.022931710E-1,9.766903877E0
5.890895970E-1,3.828516230E-2,9.750752151E-2,9.772287369E0
5.913256190E-1,3.349951655E-2,1.022931710E-1,9.781260490E0
5.935617640E-1,2.811566554E-2,8.315058798E-2,9.795618057E0
5.957983370E-1,3.828516230E-2,9.272187948E-2,9.786046028E0
5.980346660E-1,1.435693540E-2,1.022931710E-1,9.790832520E0
6.002709940E-1,9.571290575E-3,8.374879509E-2,9.781260490E0
6.025073220E-1,2.871387079E-2,9.750752151E-2,9.781260490E0
6.047443820E-1,2.871387079E-2,8.315058798E-2,9.781260490E0
6.069796730E-1,3.828516230E-2,8.793623000E-2,9.795618057E0
6.092157570E-1,3.349951655E-2,6.879365444E-2,9.757930756E0
6.114515970E-1,3.349951655E-2,9.272187948E-2,9.767501831E0
6.136882300E-1,4.845465720E-2,1.166501045E-1,9.753145218E0
6.159248020E-1,4.307080805E-2,9.750752151E-2,9.795618057E0
6.181578950E-1,3.828516230E-2,1.022931710E-1,9.786046028E0
6.203806730E-1,2.392822690E-2,8.793623000E-2,9.786046028E0
6.226159030E-1,2.871387079E-2,8.793623000E-2,9.786046028E0
6.248696270E-1,2.871387079E-2,7.836493850E-2,9.786046028E0
6.271090070E-1,3.828516230E-2,1.022931710E-1,9.790832520E0
6.293466160E-1,2.871387079E-2,9.750752151E-2,9.762118340E0
6.315783670E-1,2.392822690E-2,8.793623000E-2,9.786046028E0
6.338146950E-1,2.811566554E-2,7.357929647E-2,9.786046028E0
6.360509620E-1,1.914258115E-2,9.272187948E-2,9.790832520E0
6.382844210E-1,1.914258115E-2,8.315058798E-2,9.781260490E0
6.405126320E-1,3.768695518E-2,6.879365444E-2,9.777072906E0
6.427594580E-1,2.871387079E-2,8.315058798E-2,9.786046028E0
6.449958470E-1,2.392822690E-2,8.793623000E-2,9.781260490E0
6.472347990E-1,9.571290575E-3,8.853443712E-2,9.771689415E0
6.494683200E-1,1.435693540E-2,1.070788130E-1,9.781260490E0
6.517048930E-1,2.871387079E-2,9.272187948E-2,9.776474953E0
6.539414650E-1,1.914258115E-2,1.022931710E-1,9.786046028E0
6.561787080E-1,2.392822690E-2,8.793623000E-2,9.776474953E0
6.584142430E-1,3.828516230E-2,1.022931710E-1,9.790832520E0
6.606452610E-1,2.392822690E-2,9.272187948E-2,9.776474953E0
6.628683450E-1,2.392822690E-2,1.022931710E-1,9.795618057E0
6.651220070E-1,3.828516230E-2,9.750752151E-2,9.771689415E0
6.673581520E-1,1.914258115E-2,9.750752151E-2,9.800403595E0
6.695989960E-1,3.349951655E-2,1.022931710E-1,9.766903877E0
6.718308080E-1,2.871387079E-2,9.272187948E-2,9.776474953E0
6.740676240E-1,2.871387079E-2,1.022931710E-1,9.781260490E0
6.763012060E-1,1.914258115E-2,8.793623000E-2,9.781260490E0
6.785278300E-1,1.914258115E-2,9.750752151E-2,9.790832520E0
6.807758160E-1,2.392822690E-2,8.793623000E-2,9.776474953E0
6.830095190E-1,3.828516230E-2,7.836493850E-2,9.776474953E0
6.852358370E-1,1.914258115E-2,9.750752151E-2,9.786046028E0
6.874694180E-1,4.307080805E-2,9.272187948E-2,9.776474953E0
6.897029990E-1,3.349951655E-2,8.793623000E-2,9.776474953E0
6.919365800E-1,2.392822690E-2,9.750752151E-2,9.786046028E0
6.941701610E-1,2.871387079E-2,9.272187948E-2,9.786046028E0
6.964037420E-1,2.392822690E-2,9.750752151E-2,9.771689415E0
6.986373230E-1,2.811566554E-2,8.315058798E-2,9.790832520E0
7.008709040E-1,1.435693540E-2,9.272187948E-2,9.781260490E0
7.031044850E-1,1.914258115E-2,8.793623000E-2,9.766903877E0
7.053662080E-1,1.914258115E-2,9.750752151E-2,9.776474953E0
7.076078460E-1,2.392822690E-2,8.315058798E-2,9.781260490E0
7.098311740E-1,2.871387079E-2,8.793623000E-2,9.795618057E0
7.120734230E-1,3.349951655E-2,8.315058798E-2,9.786046028E0
7.143085910E-1,2.392822690E-2,9.750752151E-2,9.781260490E0
7.165593850E-1,3.349951655E-2,8.315058798E-2,9.766903877E0
7.187947360E-1,2.333002165E-2,5.922235921E-2,9.790832520E0
7.210325900E-1,2.811566554E-2,7.836493850E-2,9.781260490E0
7.232706890E-1,1.435693540E-2,8.315058798E-2,9.786046028E0
7.255009740E-1,3.290131316E-2,7.357929647E-2,9.776474953E0
7.277385840E-1,1.914258115E-2,8.315058798E-2,9.771689415E0
7.299730810E-1,2.333002165E-2,6.879365444E-2,9.795618057E0
7.322097140E-1,2.811566554E-2,5.922235921E-2,9.766903877E0
7.344455540E-1,2.333002165E-2,7.357929647E-2,9.781260490E0
7.366820660E-1,4.307080805E-2,8.793623000E-2,9.777072906E0
7.389183940E-1,3.349951655E-2,8.793623000E-2,9.771689415E0
7.411545390E-1,3.349951655E-2,8.793623000E-2,9.781260490E0
7.433908060E-1,4.785645381E-2,8.793623000E-2,9.777072906E0
7.456274390E-1,4.307080805E-2,9.272187948E-2,9.772287369E0
7.478645000E-1,4.307080805E-2,1.022931710E-1,9.776474953E0
7.500996680E-1,2.392822690E-2,9.272187948E-2,9.790832520E0
7.523361790E-1,3.828516230E-2,1.118644550E-1,9.771689415E0
7.545719570E-1,1.914258115E-2,8.793623000E-2,9.771689415E0
7.568083470E-1,4.307080805E-2,9.272187948E-2,9.767501831E0
7.590446140E-1,4.307080805E-2,1.118644550E-1,9.790832520E0
7.612810040E-1,1.914258115E-2,1.166501045E-1,9.776474953E0
7.635175760E-1,4.307080805E-2,1.118644550E-1,9.790832520E0
7.657543920E-1,4.845465720E-2,1.166501045E-1,9.767501831E0
7.679897440E-1,2.871387079E-2,1.022931710E-1,9.795618057E0
7.702260720E-1,4.307080805E-2,1.070788130E-1,9.781260490E0
7.724620950E-1,4.307080805E-2,1.070788130E-1,9.786046028E0
7.746947610E-1,3.828516230E-2,1.070788130E-1,9.771689415E0
7.769197970E-1,2.871387079E-2,9.750752151E-2,9.786046028E0
7.791666850E-1,1.435693540E-2,9.750752151E-2,9.776474953E0
7.814075290E-1,2.392822690E-2,9.750752151E-2,9.795618057E0
7.836480080E-1,1.914258115E-2,8.315058798E-2,9.781260490E0
7.858809170E-1,1.375873014E-2,8.315058798E-2,9.790832520E0
7.881119960E-1,2.871387079E-2,1.022931710E-1,9.766903877E0
7.903361790E-1,2.392822690E-2,8.315058798E-2,9.766903877E0
7.925885600E-1,1.914258115E-2,9.272187948E-2,9.776474953E0
7.948247050E-1,9.571290575E-3,1.076770201E-1,9.762118340E0
7.970652440E-1,3.349951655E-2,1.070788130E-1,9.800403595E0
7.992985200E-1,1.914258115E-2,9.750752151E-2,9.786046028E0
8.015344210E-1,1.435693540E-2,9.750752151E-2,9.795618057E0
8.037667820E-1,1.914258115E-2,1.022931710E-1,9.786046028E0
8.059938330E-1,1.435693540E-2,8.793623000E-2,9.776474953E0
8.082391940E-1,2.392822690E-2,8.793623000E-2,9.786046028E0
8.104675270E-1,2.871387079E-2,9.272187948E-2,9.790832520E0
8.127177700E-1,1.854437590E-2,7.836493850E-2,9.781260490E0
8.149509250E-1,1.854437590E-2,7.836493850E-2,9.786046028E0
8.171901830E-1,1.854437590E-2,5.922235921E-2,9.776474953E0
8.194243140E-1,1.854437590E-2,6.879365444E-2,9.781260490E0
8.216599100E-1,9.571290575E-3,9.272187948E-2,9.776474953E0
8.238959940E-1,2.392822690E-2,8.793623000E-2,9.771689415E0
8.261320780E-1,1.435693540E-2,7.896314561E-2,9.762118340E0
8.283654760E-1,1.435693540E-2,6.939185411E-2,9.752547264E0
8.305931370E-1,2.871387079E-2,8.315058798E-2,9.776474953E0
8.328405740E-1,8.973085321E-3,7.836493850E-2,9.795618057E0
8.350776340E-1,3.828516230E-2,7.357929647E-2,9.771689415E0
8.373173190E-1,3.349951655E-2,8.315058798E-2,9.762118340E0
8.395498630E-1,1.914258115E-2,7.836493850E-2,9.762118340E0
8.417858250E-1,9.571290575E-3,8.793623000E-2,9.786046028E0
8.440219700E-1,2.871387079E-2,1.118644550E-1,9.781260490E0
8.462585430E-1,2.871387079E-2,8.793623000E-2,9.781260490E0
8.484948710E-1,2.871387079E-2,9.750752151E-2,9.795618057E0
8.507309550E-1,3.349951655E-2,9.272187948E-2,9.795618057E0
8.529675270E-1,3.828516230E-2,8.793623000E-2,9.762118340E0
8.552045260E-1,3.349951655E-2,9.750752151E-2,9.781260490E0
8.574410980E-1,1.914258115E-2,1.070788130E-1,9.790832520E0
8.596829800E-1,2.871387079E-2,1.166501045E-1,9.790832520E0
8.619174170E-1,3.828516230E-2,1.022931710E-1,9.771689415E0
8.641484350E-1,1.435693540E-2,9.750752151E-2,9.790832520E0
8.663832980E-1,4.307080805E-2,9.272187948E-2,9.771689415E0
8.686168180E-1,3.828516230E-2,8.793623000E-2,9.762118340E0
8.708440520E-1,3.828516230E-2,1.070788130E-1,9.786046028E0
8.730800750E-1,2.392822690E-2,8.793623000E-2,9.776474953E0
8.753181740E-1,2.333002165E-2,7.836493850E-2,9.781260490E0
8.775687840E-1,1.375873014E-2,8.793623000E-2,9.800403595E0
8.798048070E-1,5.264209956E-2,8.733802289E-2,9.777072906E0
8.820411960E-1,2.392822690E-2,9.272187948E-2,9.762118340E0
8.842746560E-1,2.392822690E-2,9.272187948E-2,9.781260490E0
8.865115330E-1,3.349951655E-2,7.836493850E-2,9.766903877E0
8.887463960E-1,3.349951655E-2,9.272187948E-2,9.766903877E0
8.909718600E-1,3.349951655E-2,8.793623000E-2,9.790832520E0
8.932077000E-1,5.742774159E-2,1.016949639E-1,9.786644936E0
8.954557460E-1,3.828516230E-2,9.750752151E-2,9.781260490E0
8.976915860E-1,3.349951655E-2,8.793623000E-2,9.776474953E0
8.999167460E-1,2.811566554E-2,7.357929647E-2,9.790832520E0
9.021528300E-1,5.264209956E-2,8.733802289E-2,9.786644936E0
9.044010600E-1,2.392822690E-2,9.272187948E-2,9.771689415E0
9.066403780E-1,2.392822690E-2,8.793623000E-2,9.776474953E0
9.088774990E-1,1.914258115E-2,8.793623000E-2,9.776474953E0
9.111098000E-1,2.871387079E-2,8.793623000E-2,9.776474953E0
9.133459450E-1,4.187439568E-3,8.315058798E-2,9.790832520E0
9.155819680E-1,2.871387079E-2,9.272187948E-2,9.771689415E0
9.178183570E-1,2.392822690E-2,8.793623000E-2,9.771689415E0
9.200549290E-1,1.914258115E-2,1.022931710E-1,9.781260490E0
9.222910130E-1,1.854437590E-2,7.836493850E-2,9.800403595E0
9.245275850E-1,3.349951655E-2,8.793623000E-2,9.790832520E0
9.267613500E-1,9.571290575E-3,8.793623000E-2,9.781260490E0
9.289877910E-1,2.392822690E-2,9.750752151E-2,9.786046028E0
9.312360820E-1,1.914258115E-2,9.750752151E-2,9.800403595E0
9.334721660E-1,1.435693540E-2,9.750752151E-2,9.786046028E0
9.357114840E-1,2.392822690E-2,1.022931710E-1,9.781260490E0
9.379447610E-1,3.349951655E-2,1.070788130E-1,9.795618057E0
9.401811500E-1,1.854437590E-2,7.836493850E-2,9.786046028E0
9.424187600E-1,1.854437590E-2,7.357929647E-2,9.786046028E0
9.446547830E-1,2.392822690E-2,8.793623000E-2,9.781260490E0
9.468898900E-1,2.392822690E-2,9.750752151E-2,9.771689415E0
9.491256680E-1,2.392822690E-2,1.070788130E-1,9.771689415E0
9.513619350E-1,3.828516230E-2,9.272187948E-2,9.795618057E0
9.535982640E-1,3.828516230E-2,1.070788130E-1,9.766903877E0
9.558323340E-1,2.392822690E-2,9.272187948E-2,9.776474953E0
9.580648780E-1,9.571290575E-3,9.272187948E-2,9.795618057E0
9.603171360E-1,3.349951655E-2,8.793623000E-2,9.743574142E0
9.625444920E-1,2.871387079E-2,7.357929647E-2,9.771689415E0
9.647818580E-1,4.307080805E-2,9.272187948E-2,9.781260490E0
9.670134860E-1,1.914258115E-2,9.750752151E-2,9.786046028E0
9.692521950E-1,1.435693540E-2,9.750752151E-2,9.781260490E0
9.714885840E-1,9.571290575E-3,9.272187948E-2,9.786046028E0
9.737250340E-1,1.914258115E-2,1.070788130E-1,9.766903877E0
9.759606300E-1,2.871387079E-2,9.750752151E-2,9.771689415E0
9.781945160E-1,1.435693540E-2,1.214357466E-1,9.786046028E0
9.804224830E-1,2.392822690E-2,8.793623000E-2,9.781260490E0
9.826697360E-1,2.392822690E-2,1.022931710E-1,9.786046028E0
9.849060040E-1,2.392822690E-2,9.272187948E-2,9.771689415E0
9.871450170E-1,2.871387079E-2,9.272187948E-2,9.776474953E0
9.893784160E-1,2.871387079E-2,1.022931710E-1,9.786046028E0
9.916117530E-1,3.828516230E-2,8.315058798E-2,9.781260490E0
9.938390480E-1,1.435693540E-2,9.272187948E-2,9.786046028E0
9.960874000E-1,3.828516230E-2,8.793623000E-2,9.781260490E0
9.983244000E-1,2.871387079E-2,9.750752151E-2,9.786046028E0
1.000562497E0,2.871387079E-2,8.793623000E-2,9.786046028E0
1.002792905E0,3.828516230E-2,8.793623000E-2,9.781260490E0
1.005020016E0,3.349951655E-2,1.070788130E-1,9.800403595E0
1.007268613E0,2.871387079E-2,9.272187948E-2,9.766903877E0
1.009504941E0,3.768695518E-2,7.357929647E-2,9.786046028E0
1.011744505E0,2.871387079E-2,1.022931710E-1,9.781260490E0
1.013978696E0,3.828516230E-2,8.315058798E-2,9.786046028E0
1.016214414E0,4.785645381E-2,8.793623000E-2,9.767501831E0
1.018450132E0,3.349951655E-2,8.315058798E-2,9.771689415E0
1.020682737E0,2.871387079E-2,1.022931710E-1,9.786046028E0
1.022910215E0,2.392822690E-2,9.272187948E-2,9.771689415E0
1.025158628E0,3.349951655E-2,9.272187948E-2,9.790832520E0
1.027392087E0,1.914258115E-2,8.315058798E-2,9.776474953E0
1.029622372E0,1.435693540E-2,8.315058798E-2,9.786046028E0
1.031867612E0,2.871387079E-2,8.793623000E-2,9.786046028E0
1.034104429E0,2.392822690E-2,8.315058798E-2,9.786046028E0
1.036342709E0,2.392822690E-2,9.272187948E-2,9.771689415E0
1.038575864E0,1.435693540E-2,9.272187948E-2,9.790832520E0
1.040812071E0,2.333002165E-2,6.879365444E-2,9.790832520E0
1.043048826E0,3.290131316E-2,7.836493850E-2,9.795618057E0
1.045284910E0,2.871387079E-2,8.793623000E-2,9.786046028E0
1.047518003E0,3.349951655E-2,9.272187948E-2,9.762118340E0
1.049745542E0,2.392822690E-2,9.272187948E-2,9.781260490E0
1.051994627E0,3.349951655E-2,8.793623000E-2,9.766903877E0
1.054229917E0,2.333002165E-2,8.315058798E-2,9.795618057E0
1.056468808E0,2.871387079E-2,1.022931710E-1,9.776474953E0
1.058699155E0,1.914258115E-2,8.793623000E-2,9.786046028E0
1.060926694E0,2.392822690E-2,1.070788130E-1,9.771689415E0
1.063174863E0,2.871387079E-2,1.070788130E-1,9.776474953E0
1.065411130E0,2.452643216E-2,1.166501045E-1,9.766903877E0
1.067650205E0,4.785645381E-2,8.793623000E-2,9.777072906E0
1.069882810E0,2.871387079E-2,1.022931710E-1,9.781260490E0
1.072119810E0,3.828516230E-2,1.070788130E-1,9.786046028E0
1.074355955E0,1.435693540E-2,1.070788130E-1,9.790832520E0
1.076592649E0,4.785645287E-3,1.028913707E-1,9.781260490E0
1.078828306E0,2.871387079E-2,1.070788130E-1,9.771689415E0
1.081064634E0,2.392822690E-2,9.272187948E-2,9.786046028E0
1.083301023E0,2.871387079E-2,1.070788130E-1,9.786046028E0
1.085538877E0,3.349951655E-2,1.022931710E-1,9.781260490E0
1.087774106E0,2.871387079E-2,9.272187948E-2,9.776474953E0
1.090007566E0,3.768695518E-2,7.836493850E-2,9.786046028E0
1.092245542E0,2.392822690E-2,8.315058798E-2,9.771689415E0
1.094482115E0,3.349951655E-2,9.272187948E-2,9.766903877E0
1.096719114E0,2.871387079E-2,9.750752151E-2,9.776474953E0
1.098955076E0,4.785645381E-2,8.793623000E-2,9.757930756E0
1.101190855E0,2.871387079E-2,8.315058798E-2,9.771689415E0
1.103427549E0,2.392822690E-2,8.793623000E-2,9.786046028E0
1.105664732E0,3.349951655E-2,8.315058798E-2,9.786046028E0
1.107899900E0,3.349951655E-2,1.022931710E-1,9.771689415E0
1.110135984E0,2.871387079E-2,9.272187948E-2,9.781260490E0
1.112371945E0,2.871387079E-2,8.793623000E-2,9.781260490E0
1.114608396E0,2.333002165E-2,6.400800496E-2,9.757332802E0
1.116844907E0,3.768695518E-2,7.836493850E-2,9.795618057E0
1.119080747E0,4.307080805E-2,9.272187948E-2,9.786046028E0
1.121317441E0,2.392822690E-2,9.750752151E-2,9.776474953E0
1.123554624E0,2.392822690E-2,9.272187948E-2,9.786046028E0
1.125786863E0,2.871387079E-2,9.272187948E-2,9.786046028E0
1.128014158E0,3.349951655E-2,1.070788130E-1,9.786046028E0
1.130261961E0,2.392822690E-2,9.272187948E-2,9.800403595E0
1.132498777E0,2.871387079E-2,9.750752151E-2,9.795618057E0
1.134737851E0,3.349951655E-2,9.750752151E-2,9.766903877E0
1.136971189E0,3.349951655E-2,9.272187948E-2,9.771689415E0
1.139207456E0,2.871387079E-2,8.793623000E-2,9.795618057E0
1.141444578E0,3.349951655E-2,1.022931710E-1,9.776474953E0
1.143679868E0,4.785645381E-2,1.070788130E-1,9.767501831E0
1.145916074E0,3.409772366E-2,1.118644550E-1,9.762118340E0
1.148149290E0,3.349951655E-2,1.070788130E-1,9.786046028E0
1.150376462E0,2.392822690E-2,9.750752151E-2,9.776474953E0
1.152624998E0,3.828516230E-2,8.793623000E-2,9.771689415E0
1.154861265E0,2.392822690E-2,1.022931710E-1,9.776474953E0
1.157101621E0,3.828516230E-2,9.750752151E-2,9.781260490E0
1.159334470E0,1.435693540E-2,8.374879509E-2,9.766903877E0
1.161570066E0,2.392822690E-2,1.070788130E-1,9.781260490E0
1.163805906E0,2.392822690E-2,9.272187948E-2,9.771689415E0
1.166042234E0,3.349951655E-2,1.022931710E-1,9.800403595E0
1.168275571E0,3.828516230E-2,9.750752151E-2,9.781260490E0
1.170503171E0,2.871387079E-2,9.750752151E-2,9.781260490E0
1.172751218E0,2.871387079E-2,9.750752151E-2,9.781260490E0
1.174987790E0,1.435693540E-2,8.793623000E-2,9.781260490E0
1.177227537E0,3.349951655E-2,9.750752151E-2,9.771689415E0
1.179459898E0,2.871387079E-2,7.836493850E-2,9.762716293E0
1.181695921E0,4.307080805E-2,9.750752151E-2,9.772287369E0
1.183931822E0,3.828516230E-2,9.750752151E-2,9.767501831E0
1.186168455E0,2.392822690E-2,9.272187948E-2,9.776474953E0
1.188405088E0,3.828516230E-2,8.793623000E-2,9.795618057E0
1.190642758E0,2.392822690E-2,8.315058798E-2,9.762118340E0
1.192883115E0,3.828516230E-2,8.793623000E-2,9.767501831E0
1.195114744E0,3.828516230E-2,9.272187948E-2,9.772287369E0
1.197350034E0,2.871387079E-2,8.793623000E-2,9.762118340E0
1.199584836E0,2.392822690E-2,9.750752151E-2,9.776474953E0
1.201822201E0,2.333002165E-2,7.836493850E-2,9.809974670E0
1.204058530E0,2.392822690E-2,1.070788130E-1,9.776474953E0
1.206294920E0,3.768695518E-2,7.836493850E-2,9.790832520E0
1.208531248E0,2.871387079E-2,1.022931710E-1,9.786046028E0
1.210767820E0,3.349951655E-2,1.070788130E-1,9.790832520E0
1.213004636E0,2.392822690E-2,8.315058798E-2,9.776474953E0
1.215239927E0,2.871387079E-2,8.315058798E-2,9.786046028E0
1.217476011E0,2.392822690E-2,1.022931710E-1,9.786046028E0
1.219709165E0,2.392822690E-2,8.793623000E-2,9.766903877E0
1.221937802E0,3.828516230E-2,9.272187948E-2,9.781859398E0
1.224189207E0,4.247260094E-2,7.776673883E-2,9.805189133E0
1.226421445E0,2.871387079E-2,1.022931710E-1,9.781260490E0
1.228661924E0,1.914258115E-2,8.315058798E-2,9.762118340E0
1.230893735E0,3.828516230E-2,9.272187948E-2,9.772287369E0
1.233130064E0,3.349951655E-2,8.793623000E-2,9.795618057E0
1.235365659E0,9.571290575E-3,9.810572863E-2,9.771689415E0
1.237602232E0,3.349951655E-2,1.022931710E-1,9.762118340E0
1.239838560E0,1.914258115E-2,7.357929647E-2,9.771689415E0
1.242075010E0,2.871387079E-2,9.272187948E-2,9.781260490E0
1.244311277E0,2.392822690E-2,8.315058798E-2,9.776474953E0
1.246547849E0,2.871387079E-2,7.836493850E-2,9.776474953E0
1.248784666E0,3.349951655E-2,8.315058798E-2,9.786046028E0
1.251019956E0,2.931207791E-2,1.214357466E-1,9.786046028E0
1.253256040E0,3.349951655E-2,9.750752151E-2,9.800403595E0
1.255492123E0,2.452643216E-2,1.166501045E-1,9.766903877E0
1.257728452E0,2.871387079E-2,1.070788130E-1,9.776474953E0
1.259964841E0,2.392822690E-2,1.070788130E-1,9.766903877E0
1.262201170E0,3.349951655E-2,9.272187948E-2,9.771689415E0
1.264437803E0,1.974078640E-2,1.118644550E-1,9.762118340E0
1.266674863E0,2.392822690E-2,1.070788130E-1,9.771689415E0
1.268910154E0,4.307080805E-2,8.793623000E-2,9.781859398E0
1.271146238E0,1.914258115E-2,9.272187948E-2,9.790832520E0
1.273381589E0,2.871387079E-2,9.750752151E-2,9.776474953E0
1.275617123E0,1.914258115E-2,8.315058798E-2,9.781260490E0
1.277859800E0,2.871387079E-2,8.315058798E-2,9.781260490E0
1.280091001E0,2.333002165E-2,6.400800496E-2,9.800403595E0
1.282328305E0,3.349951655E-2,8.793623000E-2,9.762118340E0
1.284563474E0,1.435693540E-2,8.853443712E-2,9.762118340E0
1.286800046E0,3.349951655E-2,8.315058798E-2,9.771689415E0
1.289036069E0,1.914258115E-2,8.315058798E-2,9.786046028E0
1.291271909E0,2.871387079E-2,8.315058798E-2,9.786046028E0
1.293508482E0,2.871387079E-2,7.836493850E-2,9.771689415E0
1.295744871E0,2.871387079E-2,8.315058798E-2,9.762118340E0
1.297981504E0,3.349951655E-2,1.022931710E-1,9.766903877E0
1.300218748E0,4.785645381E-2,9.750752151E-2,9.762716293E0
1.302454587E0,3.349951655E-2,8.315058798E-2,9.776474953E0
1.304688474E0,2.871387079E-2,9.272187948E-2,9.752547264E0
1.306920163E0,2.871387079E-2,9.272187948E-2,9.786046028E0
1.309162412E0,1.854437590E-2,6.400800496E-2,9.805189133E0
1.311398923E0,2.392822690E-2,9.272187948E-2,9.776474953E0
1.313636472E0,3.349951655E-2,8.315058798E-2,9.781260490E0
1.315871275E0,3.828516230E-2,1.022931710E-1,9.795618057E0
1.318104673E0,3.349951655E-2,9.272187948E-2,9.781260490E0
1.320333005E0,2.392822690E-2,9.750752151E-2,9.790832520E0
1.322580015E0,2.452643216E-2,1.166501045E-1,9.776474953E0
1.324816160E0,2.392822690E-2,9.272187948E-2,9.771689415E0
1.327055173E0,3.828516230E-2,8.793623000E-2,9.795618057E0
1.329288816E0,3.349951655E-2,8.793623000E-2,9.800403595E0
1.331525144E0,2.871387079E-2,9.750752151E-2,9.757332802E0
1.333761228E0,3.290131316E-2,8.315058798E-2,9.800403595E0
1.335997739E0,2.392822690E-2,1.022931710E-1,9.781260490E0
1.338231565E0,3.349951655E-2,1.118644550E-1,9.795618057E0
1.340456601E0,3.349951655E-2,9.750752151E-2,9.795618057E0
1.342697629E0,1.914258115E-2,1.022931710E-1,9.757332802E0
1.344930174E0,2.392822690E-2,8.793623000E-2,9.786046028E0
1.347181700E0,1.435693540E-2,1.022931710E-1,9.795618057E0
1.349416441E0,4.187439568E-3,8.374879509E-2,9.795618057E0
1.351654355E0,9.571290575E-3,8.315058798E-2,9.786046028E0
1.353887693E0,3.290131316E-2,7.357929647E-2,9.776474953E0
1.356124754E0,3.349951655E-2,1.022931710E-1,9.762118340E0
1.358360044E0,3.349951655E-2,1.022931710E-1,9.790832520E0
1.360596250E0,3.349951655E-2,9.750752151E-2,9.795618057E0
1.362832516E0,1.914258115E-2,8.793623000E-2,9.766903877E0
1.365068784E0,1.914258115E-2,1.022931710E-1,9.776474953E0
1.367304868E0,1.854437590E-2,7.836493850E-2,9.786046028E0
1.369538266E0,1.375873014E-2,6.400800496E-2,9.771689415E0
1.371764035E0,2.392822690E-2,9.272187948E-2,9.786046028E0
1.373999692E0,3.828516230E-2,9.272187948E-2,9.771689415E0
1.376238096E0,9.571290575E-3,9.272187948E-2,9.786046028E0
1.378486021E0,1.435693540E-2,8.315058798E-2,9.766903877E0
1.380712583E0,3.349951655E-2,7.836493850E-2,9.766903877E0
1.382958249E0,2.871387079E-2,9.272187948E-2,9.781260490E0
1.385194761E0,3.349951655E-2,7.357929647E-2,9.771689415E0
1.387430112E0,4.307080805E-2,8.315058798E-2,9.772287369E0
1.389652707E0,2.871387079E-2,9.750752151E-2,9.776474953E0
1.391904844E0,2.392822690E-2,9.750752151E-2,9.776474953E0
1.394140134E0,3.349951655E-2,9.272187948E-2,9.762118340E0
1.396377255E0,3.828516230E-2,7.836493850E-2,9.776474953E0
1.398597654E0,1.914258115E-2,9.272187948E-2,9.781260490E0
1.400834104E0,2.811566554E-2,7.836493850E-2,9.790832520E0
1.403072935E0,3.290131316E-2,7.836493850E-2,9.790832520E0
1.405323972E0,2.392822690E-2,7.836493850E-2,9.771689415E0
1.407557798E0,2.871387079E-2,9.750752151E-2,9.776474953E0
1.409784605E0,2.392822690E-2,1.022931710E-1,9.762118340E0
1.412024656E0,1.914258115E-2,9.272187948E-2,9.762118340E0
1.414266111E0,1.914258115E-2,1.070788130E-1,9.800403595E0
1.416505368E0,2.392822690E-2,1.118644550E-1,9.776474953E0
1.418740109E0,3.349951655E-2,9.272187948E-2,9.790832520E0
1.420975095E0,1.914258115E-2,1.022931710E-1,9.771689415E0
1.423211118E0,1.435693540E-2,9.272187948E-2,9.776474953E0
1.425447751E0,3.349951655E-2,8.793623000E-2,9.786046028E0
1.427684812E0,1.435693540E-2,8.315058798E-2,9.771689415E0
1.429920164E0,3.768695518E-2,7.357929647E-2,9.781260490E0
1.432156187E0,2.392822690E-2,1.022931710E-1,9.776474953E0
1.434392027E0,2.392822690E-2,1.070788130E-1,9.786046028E0
1.436627561E0,9.571290575E-3,1.022931710E-1,9.786046028E0
1.438857785E0,3.349951655E-2,8.315058798E-2,9.786046028E0
1.441089414E0,9.571290575E-3,9.750752151E-2,9.790832520E0
1.443338926E0,2.871387079E-2,1.022931710E-1,9.776474953E0
1.445575986E0,1.914258115E-2,1.070788130E-1,9.781260490E0
1.447813046E0,4.785645381E-2,1.016949639E-1,9.776474953E0
1.450045834E0,2.871387079E-2,9.272187948E-2,9.795618057E0
1.452282101E0,1.914258115E-2,8.793623000E-2,9.776474953E0
1.454518552E0,4.307080805E-2,9.750752151E-2,9.753145218E0
1.456755125E0,2.392822690E-2,9.272187948E-2,9.771689415E0
1.458991209E0,1.435693540E-2,8.793623000E-2,9.776474953E0
1.461227842E0,2.392822690E-2,9.272187948E-2,9.790832520E0
1.463464841E0,2.392822690E-2,9.272187948E-2,9.776474953E0
1.465700193E0,3.349951655E-2,8.793623000E-2,9.762118340E0
1.467936277E0,3.349951655E-2,7.836493850E-2,9.766903877E0
1.470172361E0,2.871387079E-2,1.022931710E-1,9.781260490E0
1.472408872E0,2.871387079E-2,9.272187948E-2,9.771689415E0
1.474642026E0,2.871387079E-2,9.750752151E-2,9.776474953E0
1.476869382E0,1.854437590E-2,7.836493850E-2,9.790832520E0
1.479117856E0,3.768695518E-2,7.836493850E-2,9.786046028E0
1.481354734E0,3.828516230E-2,1.022931710E-1,9.795618057E0
1.483593016E0,1.914258115E-2,1.070788130E-1,9.776474953E0
1.485826109E0,2.871387079E-2,8.793623000E-2,9.762118340E0
1.488059324E0,2.871387079E-2,8.315058798E-2,9.776474953E0
1.490287107E0,3.828516230E-2,9.750752151E-2,9.766903877E0
1.492535154E0,3.768695518E-2,8.793623000E-2,9.800403595E0
1.494771299E0,3.349951655E-2,9.750752151E-2,9.776474953E0
1.497010984E0,2.871387079E-2,7.836493850E-2,9.771689415E0
1.499244871E0,3.768695518E-2,8.315058798E-2,9.790832520E0
1.501480222E0,2.871387079E-2,8.793623000E-2,9.790832520E0
1.503713254E0,1.914258115E-2,9.272187948E-2,9.762118340E0
1.505940365E0,3.349951655E-2,9.272187948E-2,9.781260490E0
1.508185666E0,2.811566554E-2,7.836493850E-2,9.781260490E0
1.510413084E0,1.435693540E-2,9.272187948E-2,9.762118340E0
1.512664610E0,1.914258115E-2,9.750752151E-2,9.776474953E0
1.514898923E0,2.871387079E-2,9.272187948E-2,9.771689415E0
1.517137814E0,4.785645287E-3,9.332008660E-2,9.766903877E0
1.519370359E0,3.349951655E-2,1.022931710E-1,9.786046028E0
1.521606138E0,2.871387079E-2,1.070788130E-1,9.795618057E0
1.523842283E0,1.914258115E-2,1.070788130E-1,9.771689415E0
1.526078794E0,3.828516230E-2,8.315058798E-2,9.767501831E0
1.528312253E0,2.392822690E-2,9.272187948E-2,9.781260490E0
1.530539793E0,2.871387079E-2,9.750752151E-2,9.771689415E0
1.532787839E0,2.871387079E-2,1.022931710E-1,9.781260490E0
1.535024839E0,2.392822690E-2,9.272187948E-2,9.771689415E0
1.537262814E0,2.871387079E-2,1.022931710E-1,9.766903877E0
1.539496030E0,2.871387079E-2,9.750752151E-2,9.776474953E0
1.541732176E0,1.914258115E-2,7.836493850E-2,9.771689415E0
1.543968992E0,1.914258115E-2,9.272187948E-2,9.786046028E0
1.546205076E0,2.392822690E-2,1.070788130E-1,9.790832520E0
1.548441160E0,1.914258115E-2,9.272187948E-2,9.786046028E0
1.550677671E0,1.435693540E-2,9.750752151E-2,9.786046028E0
1.552914732E0,2.871387079E-2,9.272187948E-2,9.776474953E0
1.555149900E0,2.871387079E-2,9.750752151E-2,9.786046028E0
1.557386228E0,2.871387079E-2,7.836493850E-2,9.781260490E0
1.559622250E0,3.349951655E-2,9.750752151E-2,9.786046028E0
1.561858640E0,2.931207791E-2,1.022931710E-1,9.747760773E0
1.564094968E0,3.349951655E-2,9.750752151E-2,9.805189133E0
1.566331357E0,3.888336942E-2,1.166501045E-1,9.766903877E0
1.568565610E0,1.914258115E-2,8.793623000E-2,9.781260490E0
1.570791684E0,2.392822690E-2,1.022931710E-1,9.795618057E0
1.573028074E0,9.571290575E-3,9.750752151E-2,9.781260490E0
1.575276304E0,3.828516230E-2,1.022931710E-1,9.771689415E0
1.577514951E0,2.871387079E-2,9.750752151E-2,9.762118340E0
1.579751767E0,2.871387079E-2,9.750752151E-2,9.800403595E0
1.581985044E0,4.307080805E-2,9.750752151E-2,9.790832520E0
1.584221433E0,2.871387079E-2,8.793623000E-2,9.771689415E0
1.586458982E0,2.871387079E-2,9.272187948E-2,9.781260490E0
1.588694822E0,1.914258115E-2,8.793623000E-2,9.781260490E0
1.590930173E0,2.871387079E-2,8.793623000E-2,9.790832520E0
1.593165952E0,3.349951655E-2,8.793623000E-2,9.776474953E0
1.595402281E0,1.854437590E-2,7.836493850E-2,9.790832520E0
1.597638670E0,3.828516230E-2,8.793623000E-2,9.786046028E0
1.599875242E0,1.914258115E-2,8.315058798E-2,9.781260490E0
1.602111265E0,2.392822690E-2,8.793623000E-2,9.786046028E0
1.604347654E0,1.435693540E-2,8.315058798E-2,9.790832520E0
1.606582150E0,3.290131316E-2,7.357929647E-2,9.786046028E0
1.608807065E0,3.828516230E-2,6.879365444E-2,9.767501831E0
1.611044492E0,1.914258115E-2,8.793623000E-2,9.776474953E0
1.613292478E0,3.828516230E-2,8.793623000E-2,9.772287369E0
1.615531369E0,3.349951655E-2,8.793623000E-2,9.790832520E0
1.617768308E0,3.828516230E-2,9.750752151E-2,9.800403595E0
1.620001157E0,8.973085321E-3,7.836493850E-2,9.786046028E0
1.622237790E0,2.871387079E-2,8.315058798E-2,9.781260490E0
1.624474790E0,2.392822690E-2,1.022931710E-1,9.766903877E0
1.626710203E0,1.435693540E-2,8.793623000E-2,9.771689415E0
1.628946287E0,2.871387079E-2,9.750752151E-2,9.766903877E0
1.631182310E0,3.349951655E-2,9.272187948E-2,9.776474953E0
1.633418699E0,1.854437590E-2,7.836493850E-2,9.795618057E0
1.635655027E0,3.349951655E-2,9.750752151E-2,9.771689415E0
1.637888059E0,1.435693540E-2,1.118644550E-1,9.776474953E0
1.640118711E0,2.392822690E-2,9.750752151E-2,9.790832520E0
1.642364866E0,4.307080805E-2,8.315058798E-2,9.791430473E0
1.644600034E0,4.785645381E-2,9.272187948E-2,9.767501831E0
1.646838498E0,1.914258115E-2,8.793623000E-2,9.786046028E0
1.649072447E0,2.392822690E-2,9.272187948E-2,9.776474953E0
1.651308897E0,2.871387079E-2,8.793623000E-2,9.771689415E0
1.653545164E0,1.914258115E-2,7.836493850E-2,9.776474953E0
1.655781492E0,2.871387079E-2,1.022931710E-1,9.766903877E0
1.658018979E0,3.349951655E-2,9.750752151E-2,9.762118340E0
1.660254636E0,3.828516230E-2,1.118644550E-1,9.766903877E0
1.662490232E0,3.409772366E-2,1.262213886E-1,9.781260490E0
1.664726072E0,1.914258115E-2,9.272187948E-2,9.790832520E0
1.666962644E0,3.349951655E-2,1.070788130E-1,9.781260490E0
1.669198667E0,3.888336942E-2,1.166501045E-1,9.771689415E0
1.671435056E0,1.914258115E-2,8.315058798E-2,9.781260490E0
1.673671323E0,3.290131316E-2,8.315058798E-2,9.790832520E0
1.675907956E0,3.349951655E-2,8.793623000E-2,9.781260490E0
1.678143125E0,1.914258115E-2,7.836493850E-2,9.776474953E0
1.680373472E0,3.349951655E-2,7.836493850E-2,9.771689415E0
1.682616148E0,2.871387079E-2,8.793623000E-2,9.766903877E0
1.684852232E0,-0.000000000E0,1.172483116E-1,9.776474953E0
1.687090269E0,1.914258115E-2,9.750752151E-2,9.776474953E0
1.689325193E0,2.392822690E-2,9.750752151E-2,9.790832520E0
1.691559385E0,3.349951655E-2,8.793623000E-2,9.776474953E0
1.693790403E0,2.392822690E-2,7.836493850E-2,9.752547264E0
1.696035154E0,2.333002165E-2,7.357929647E-2,9.781260490E0
1.698267392E0,4.247260094E-2,8.255238086E-2,9.795618057E0
1.700496763E0,3.349951655E-2,8.315058798E-2,9.771689415E0
1.702742368E0,2.392822690E-2,9.272187948E-2,9.790832520E0
1.704979002E0,3.828516230E-2,9.750752151E-2,9.790832520E0
1.707218198E0,1.914258115E-2,9.750752151E-2,9.766903877E0
1.709451414E0,4.785645381E-2,8.733802289E-2,9.781260490E0
1.711688047E0,3.828516230E-2,8.793623000E-2,9.771689415E0
1.713925230E0,1.435693540E-2,9.272187948E-2,9.776474953E0
1.716160093E0,2.871387079E-2,1.022931710E-1,9.790832520E0
1.718396177E0,1.914258115E-2,8.315058798E-2,9.781260490E0
1.720632199E0,3.349951655E-2,8.315058798E-2,9.786046028E0
1.722868894E0,2.392822690E-2,9.272187948E-2,9.790832520E0
1.725105222E0,3.828516230E-2,1.022931710E-1,9.776474953E0
1.727341611E0,2.871387079E-2,9.750752151E-2,9.786046028E0
1.729579099E0,1.914258115E-2,9.272187948E-2,9.762118340E0
1.731814939E0,2.811566554E-2,7.357929647E-2,9.800403595E0
1.734050291E0,3.828516230E-2,9.750752151E-2,9.753145218E0
1.736286070E0,3.349951655E-2,8.315058798E-2,9.757930756E0
1.738522398E0,2.871387079E-2,1.022931710E-1,9.776474953E0
1.740758726E0,4.307080805E-2,1.118644550E-1,9.790832520E0
1.742995115E0,3.828516230E-2,7.836493850E-2,9.772287369E0
1.745231443E0,1.914258115E-2,9.750752151E-2,9.790832520E0
1.747465024E0,1.914258115E-2,8.315058798E-2,9.771689415E0
1.749692869E0,3.828516230E-2,1.022931710E-1,9.767501831E0
1.751940122E0,3.349951655E-2,8.793623000E-2,9.786046028E0
1.754176267E0,3.349951655E-2,8.793623000E-2,9.786046028E0
1.756411801E0,4.307080805E-2,9.272187948E-2,9.772287369E0
1.758632993E0,2.392822690E-2,9.750752151E-2,9.776474953E0
1.760882139E0,3.349951655E-2,9.272187948E-2,9.786046028E0
1.763121519E0,4.307080805E-2,9.272187948E-2,9.753145218E0
1.765361692E0,2.871387079E-2,8.793623000E-2,9.795618057E0
1.767592831E0,3.828516230E-2,9.272187948E-2,9.772287369E0
1.769818540E0,3.349951655E-2,9.750752151E-2,9.781260490E0
1.772066465E0,3.349951655E-2,8.793623000E-2,9.766903877E0
1.774302671E0,3.828516230E-2,9.272187948E-2,9.795618057E0
1.776541745E0,1.914258115E-2,8.315058798E-2,9.790832520E0
1.778775327E0,1.914258115E-2,1.070788130E-1,9.781260490E0
1.781011167E0,2.392822690E-2,7.836493850E-2,9.781260490E0
1.783248044E0,4.307080805E-2,8.733802289E-2,9.800403595E0
1.785480527E0,2.392822690E-2,8.315058798E-2,9.766903877E0
1.787700315E0,3.349951655E-2,9.272187948E-2,9.771689415E0
1.789945066E0,3.828516230E-2,7.836493850E-2,9.777072906E0
1.792192625E0,2.392822690E-2,8.315058798E-2,9.762118340E0
1.794433225E0,2.871387079E-2,8.793623000E-2,9.776474953E0
1.796668088E0,2.392822690E-2,1.118644550E-1,9.771689415E0
1.798901548E0,3.828516230E-2,9.272187948E-2,9.790832520E0
1.801138914E0,2.871387079E-2,9.272187948E-2,9.771689415E0
1.803374998E0,4.785645381E-2,8.793623000E-2,9.762716293E0
1.805610349E0,3.290131316E-2,7.836493850E-2,9.795618057E0
1.807846188E0,3.828516230E-2,9.272187948E-2,9.766903877E0
1.810082455E0,3.349951655E-2,1.118644550E-1,9.781260490E0
1.812318845E0,5.264209956E-2,9.272187948E-2,9.757930756E0
1.814555418E0,1.854437590E-2,7.836493850E-2,9.781260490E0
1.816791502E0,2.871387079E-2,8.315058798E-2,9.786046028E0
1.819028074E0,1.435693540E-2,9.750752151E-2,9.762118340E0
1.821264829E0,5.264209956E-2,7.776673883E-2,9.767501831E0
1.823500242E0,3.349951655E-2,8.315058798E-2,9.762118340E0
1.825736570E0,3.349951655E-2,9.272187948E-2,9.781260490E0
1.827972654E0,1.435693540E-2,1.022931710E-1,9.771689415E0
1.830208982E0,2.871387079E-2,8.315058798E-2,9.776474953E0
1.832445249E0,2.392822690E-2,9.750752151E-2,9.790832520E0
1.834681394E0,3.349951655E-2,1.070788130E-1,9.805189133E0
1.836918210E0,3.828516230E-2,8.793623000E-2,9.771689415E0
1.839154966E0,2.871387079E-2,8.793623000E-2,9.781260490E0
1.841390073E0,2.871387079E-2,1.118644550E-1,9.776474953E0
1.843626157E0,2.392822690E-2,9.272187948E-2,9.776474953E0
1.845862486E0,2.871387079E-2,9.750752151E-2,9.800403595E0
1.848095884E0,1.914258115E-2,1.070788130E-1,9.781260490E0
1.850323301E0,3.828516230E-2,8.315058798E-2,9.781260490E0
1.852571470E0,1.435693540E-2,8.793623000E-2,9.757332802E0
1.854807859E0,2.871387079E-2,8.793623000E-2,9.771689415E0
1.857047910E0,3.349951655E-2,9.750752151E-2,9.781260490E0
1.859280210E0,8.973085321E-3,7.357929647E-2,9.786046028E0
1.861516355E0,1.914258115E-2,8.315058798E-2,9.757332802E0
1.863752377E0,2.333002165E-2,8.793623000E-2,9.800403595E0
1.865988767E0,3.828516230E-2,8.793623000E-2,9.781260490E0
1.868222409E0,2.392822690E-2,1.070788130E-1,9.776474953E0
1.870447019E0,1.914258115E-2,9.272187948E-2,9.776474953E0
1.872684384E0,2.871387079E-2,8.793623000E-2,9.786046028E0
1.874923337E0,3.828516230E-2,8.315058798E-2,9.786046028E0
1.877173337E0,2.392822690E-2,9.750752151E-2,9.805189133E0
1.879409177E0,2.871387079E-2,9.272187948E-2,9.786046028E0
1.881645444E0,1.435693540E-2,9.750752151E-2,9.786046028E0
1.883878904E0,3.349951655E-2,8.793623000E-2,9.781260490E0
1.886115476E0,2.871387079E-2,9.750752151E-2,9.781260490E0
1.888348569E0,3.768695518E-2,7.836493850E-2,9.786046028E0
1.890576230E0,3.349951655E-2,8.793623000E-2,9.776474953E0
1.892825132E0,1.375873014E-2,6.879365444E-2,9.786046028E0
1.895057370E0,3.349951655E-2,9.750752151E-2,9.781260490E0
1.897284971E0,2.871387079E-2,1.022931710E-1,9.781260490E0
1.899520933E0,2.811566554E-2,8.315058798E-2,9.795618057E0
1.901769041E0,2.392822690E-2,9.750752151E-2,9.786046028E0
1.904008298E0,3.828516230E-2,1.022931710E-1,9.776474953E0
1.906246091E0,5.264209956E-2,9.690931439E-2,9.777072906E0
1.908484189E0,2.392822690E-2,9.272187948E-2,9.795618057E0
1.910715269E0,2.392822690E-2,9.750752151E-2,9.790832520E0
1.912950071E0,9.571290575E-3,1.022931710E-1,9.786046028E0
1.915184751E0,3.349951655E-2,1.118644550E-1,9.771689415E0
1.917422482E0,3.349951655E-2,9.750752151E-2,9.786046028E0
1.919658933E0,2.871387079E-2,8.315058798E-2,9.776474953E0
1.921895261E0,1.914258115E-2,1.022931710E-1,9.762118340E0
1.924131345E0,2.871387079E-2,1.022931710E-1,9.800403595E0
1.926368162E0,2.871387079E-2,8.793623000E-2,9.781260490E0
1.928604978E0,1.435693540E-2,9.272187948E-2,9.776474953E0
1.930840330E0,2.392822690E-2,8.315058798E-2,9.771689415E0
1.933076414E0,2.871387079E-2,8.793623000E-2,9.800403595E0
1.935310911E0,1.435693540E-2,9.750752151E-2,9.762118340E0
1.937538755E0,1.435693540E-2,8.793623000E-2,9.786046028E0
1.939773435E0,2.931207791E-2,1.118644550E-1,9.766903877E0
1.942021665E0,3.828516230E-2,7.357929647E-2,9.762118340E0
1.944260862E0,2.392822690E-2,1.022931710E-1,9.762118340E0
1.946498044E0,3.349951655E-2,9.272187948E-2,9.781260490E0
1.948730222E0,2.871387079E-2,8.793623000E-2,9.771689415E0
1.950966306E0,3.828516230E-2,8.793623000E-2,9.776474953E0
1.953202573E0,3.349951655E-2,9.750752151E-2,9.790832520E0
1.955438901E0,3.349951655E-2,1.070788130E-1,9.762118340E0
1.957675046E0,2.871387079E-2,7.836493850E-2,9.771689415E0
1.959911619E0,2.871387079E-2,1.070788130E-1,9.776474953E0
1.962148252E0,2.871387079E-2,8.793623000E-2,9.781260490E0
1.964385313E0,2.871387079E-2,1.022931710E-1,9.771689415E0
1.966620298E0,2.871387079E-2,9.272187948E-2,9.805189133E0
1.968856443E0,2.871387079E-2,9.272187948E-2,9.795618057E0
1.971092648E0,2.392822690E-2,8.793623000E-2,9.790832520E0
1.973325315E0,1.914258115E-2,9.272187948E-2,9.762118340E0
1.975551267E0,2.871387079E-2,8.793623000E-2,9.786046028E0
1.977801450E0,3.349951655E-2,9.272187948E-2,9.776474953E0
1.980038144E0,1.435693540E-2,9.272187948E-2,9.781260490E0
1.982278623E0,4.785645381E-2,1.016949639E-1,9.786046028E0
1.984510191E0,4.307080805E-2,8.793623000E-2,9.776474953E0
1.986746336E0,3.828516230E-2,9.272187948E-2,9.781260490E0
1.988982664E0,2.392822690E-2,9.272187948E-2,9.786046028E0
1.991219236E0,2.392822690E-2,1.070788130E-1,9.795618057E0
1.993455381E0,3.828516230E-2,1.118644550E-1,9.781260490E0
1.995691648E0,4.307080805E-2,9.272187948E-2,9.776474953E0
1.997928159E0,2.392822690E-2,9.750752151E-2,9.795618057E0
2.000165037E0,4.307080805E-2,8.315058798E-2,9.786046028E0
2.002399777E0,3.828516230E-2,9.750752151E-2,9.776474953E0
2.004631223E0,2.392822690E-2,9.272187948E-2,9.776474953E0
2.006860531E0,3.349951655E-2,1.022931710E-1,9.795618057E0
2.009108884E0,1.914258115E-2,9.272187948E-2,9.800403595E0
2.011346006E0,3.349951655E-2,9.750752151E-2,9.776474953E0
2.013584776E0,2.871387079E-2,7.836493850E-2,9.776474953E0
2.015819089E0,4.307080805E-2,1.022931710E-1,9.781260490E0
2.018054135E0,2.333002165E-2,8.793623000E-2,9.795618057E0
2.020287290E0,3.349951655E-2,8.793623000E-2,9.771689415E0
2.022526121E0,3.349951655E-2,8.315058798E-2,9.776474953E0
2.024762693E0,2.392822690E-2,9.272187948E-2,9.776474953E0
2.026999814E0,3.349951655E-2,9.272187948E-2,9.786046028E0
2.029235654E0,3.290131316E-2,7.836493850E-2,9.786046028E0
2.031471677E0,9.571290575E-3,8.853443712E-2,9.766903877E0
2.033708249E0,4.307080805E-2,9.272187948E-2,9.781260490E0
2.035945005E0,4.785645381E-2,9.212367237E-2,9.786046028E0
2.038177366E0,4.785645381E-2,1.016949639E-1,9.781260490E0
2.040399961E0,3.349951655E-2,1.070788130E-1,9.776474953E0
2.042630551E0,4.307080805E-2,1.022931710E-1,9.776474953E0
2.044873289E0,1.435693540E-2,9.272187948E-2,9.781260490E0
2.047128415E0,2.392822690E-2,9.272187948E-2,9.776474953E0
2.049365842E0,2.811566554E-2,6.879365444E-2,9.771689415E0
2.051602109E0,4.785645381E-2,9.750752151E-2,9.762716293E0
2.053835203E0,2.392822690E-2,7.357929647E-2,9.766903877E0
2.056070615E0,4.785645381E-2,9.272187948E-2,9.767501831E0
2.058306210E0,2.871387079E-2,8.315058798E-2,9.776474953E0
2.060540951E0,3.828516230E-2,1.022931710E-1,9.776474953E0
2.062778989E0,2.871387079E-2,1.070788130E-1,9.786046028E0
2.065015379E0,1.375873014E-2,8.793623000E-2,9.805189133E0
2.067252134E0,4.307080805E-2,9.690931439E-2,9.795618057E0
2.069484983E0,3.828516230E-2,9.750752151E-2,9.766903877E0
2.071711851E0,1.914258115E-2,8.793623000E-2,9.790832520E0
2.073960142E0,2.871387079E-2,9.272187948E-2,9.790832520E0
2.076196470E0,2.392822690E-2,1.118644550E-1,9.771689415E0
2.078435910E0,2.871387079E-2,8.315058798E-2,9.786046028E0
2.080667356E0,1.435693540E-2,1.070788130E-1,9.781260490E0
2.082897947E0,3.349951655E-2,1.022931710E-1,9.795618057E0
2.085141904E0,4.785645381E-2,9.690931439E-2,9.781260490E0
2.087376767E0,4.307080805E-2,9.750752151E-2,9.786046028E0
2.089606565E0,4.307080805E-2,1.070788130E-1,9.766903877E0
2.091850339E0,3.828516230E-2,8.315058798E-2,9.781260490E0
2.094086424E0,2.871387079E-2,1.070788130E-1,9.766903877E0
2.096325620E0,3.828516230E-2,9.272187948E-2,9.786046028E0
2.098559324E0,3.349951655E-2,9.750752151E-2,9.790832520E0
2.100791318E0,1.854437590E-2,7.357929647E-2,9.805189133E0
2.103015318E0,2.392822690E-2,1.070788130E-1,9.776474953E0
2.105268186E0,3.290131316E-2,8.793623000E-2,9.800403595E0
2.107501828E0,2.392822690E-2,8.315058798E-2,9.762118340E0
2.109729306E0,1.854437590E-2,7.836493850E-2,9.781260490E0
2.111964536E0,3.349951655E-2,9.272187948E-2,9.766903877E0
2.114212644E0,3.349951655E-2,9.272187948E-2,9.786046028E0
2.116452024E0,1.914258115E-2,9.272187948E-2,9.790832520E0
2.118688536E0,4.307080805E-2,9.750752151E-2,9.781260490E0
2.120921629E0,2.333002165E-2,8.793623000E-2,9.800403595E0
2.123158201E0,3.349951655E-2,9.272187948E-2,9.766903877E0
2.125395017E0,2.871387079E-2,8.793623000E-2,9.776474953E0
2.127627622E0,1.914258115E-2,8.793623000E-2,9.771689415E0
2.129854734E0,8.973085321E-3,8.315058798E-2,9.790832520E0
2.132102781E0,1.914258115E-2,9.750752151E-2,9.790832520E0
2.134338987E0,2.392822690E-2,8.793623000E-2,9.786046028E0
2.136578122E0,2.392822690E-2,8.793623000E-2,9.762118340E0
2.138811521E0,2.871387079E-2,9.272187948E-2,9.790832520E0
2.141048337E0,1.914258115E-2,1.022931710E-1,9.757332802E0
2.143285276E0,2.871387079E-2,9.272187948E-2,9.776474953E0
2.145520750E0,1.914258115E-2,1.022931710E-1,9.786046028E0
2.147756528E0,4.307080805E-2,1.070788130E-1,9.786046028E0
2.149992674E0,3.349951655E-2,1.022931710E-1,9.766903877E0
2.152229185E0,3.349951655E-2,9.272187948E-2,9.795618057E0
2.154465513E0,1.914258115E-2,9.750752151E-2,9.781260490E0
2.156701658E0,2.333002165E-2,8.315058798E-2,9.790832520E0
2.158939145E0,2.871387079E-2,1.070788130E-1,9.781260490E0
2.161174985E0,2.871387079E-2,1.022931710E-1,9.766903877E0
2.163410459E0,1.435693540E-2,1.070788130E-1,9.814760208E0
2.165646482E0,2.871387079E-2,1.166501045E-1,9.786046028E0
2.167882810E0,3.349951655E-2,9.272187948E-2,9.781260490E0
2.170119138E0,3.828516230E-2,1.022931710E-1,9.766903877E0
2.172350888E0,3.349951655E-2,1.070788130E-1,9.766903877E0
2.174573423E0,1.914258115E-2,9.750752151E-2,9.766903877E0
2.176828123E0,2.871387079E-2,9.750752151E-2,9.776474953E0
2.179065122E0,2.871387079E-2,1.022931710E-1,9.795618057E0
2.181304807E0,3.349951655E-2,1.022931710E-1,9.786046028E0
2.183536680E0,2.392822690E-2,1.070788130E-1,9.771689415E0
2.185772947E0,2.871387079E-2,9.750752151E-2,9.786046028E0
2.188009336E0,2.811566554E-2,8.315058798E-2,9.795618057E0
2.190245603E0,2.871387079E-2,9.272187948E-2,9.766903877E0
2.192481626E0,4.785645381E-2,9.272187948E-2,9.762716293E0
2.194718259E0,3.349951655E-2,9.272187948E-2,9.781260490E0
2.196955320E0,2.871387079E-2,8.793623000E-2,9.781260490E0
2.199190610E0,3.828516230E-2,7.836493850E-2,9.781260490E0
2.201424375E0,2.871387079E-2,7.836493850E-2,9.776474953E0
2.203654234E0,2.392822690E-2,8.793623000E-2,9.781260490E0
2.205899168E0,1.914258115E-2,1.022931710E-1,9.781260490E0
2.208136289E0,1.914258115E-2,8.315058798E-2,9.786046028E0
2.210375913E0,1.914258115E-2,7.357929647E-2,9.762118340E0
2.212608396E0,9.571290575E-3,9.750752151E-2,9.776474953E0
2.214845151E0,3.828516230E-2,9.750752151E-2,9.800403595E0
2.217080014E0,4.307080805E-2,9.750752151E-2,9.781260490E0
2.219316587E0,2.871387079E-2,8.793623000E-2,9.771689415E0
2.221552671E0,4.725824669E-2,7.357929647E-2,9.777072906E0
2.223789060E0,1.914258115E-2,1.022931710E-1,9.757332802E0
2.226025632E0,2.392822690E-2,1.022931710E-1,9.766903877E0
2.228259030E0,3.349951655E-2,9.750752151E-2,9.790832520E0
2.230487607E0,3.828516230E-2,8.793623000E-2,9.771689415E0
2.232735349E0,2.871387079E-2,1.022931710E-1,9.790832520E0
2.234970640E0,1.435693540E-2,9.750752151E-2,9.766903877E0
2.237209226E0,1.914258115E-2,9.272187948E-2,9.790832520E0
2.239443906E0,2.811566554E-2,6.879365444E-2,9.786046028E0
2.241683530E0,2.871387079E-2,8.793623000E-2,9.786046028E0
2.243915586E0,1.914258115E-2,8.793623000E-2,9.757332802E0
2.246151914E0,1.435693540E-2,7.836493850E-2,9.781260490E0
2.248384641E0,2.392822690E-2,1.118644550E-1,9.795618057E0
2.250613462E0,2.392822690E-2,1.166501045E-1,9.781260490E0
2.252860288E0,2.392822690E-2,9.272187948E-2,9.766903877E0
2.255096616E0,1.435693540E-2,9.750752151E-2,9.771689415E0
2.257335874E0,5.742774159E-2,9.212367237E-2,9.801001549E0
2.259569150E0,2.333002165E-2,7.357929647E-2,9.786046028E0
2.261805662E0,5.264209956E-2,7.776673883E-2,9.777072906E0
2.264041685E0,1.914258115E-2,9.272187948E-2,9.781260490E0
2.266278318E0,3.349951655E-2,1.070788130E-1,9.781260490E0
2.268515134E0,1.495514158E-2,1.214357466E-1,9.781260490E0
2.270747678E0,2.452643216E-2,1.070788130E-1,9.752547264E0
2.272974546E0,2.392822690E-2,9.750752151E-2,9.790832520E0
2.275222654E0,2.392822690E-2,9.750752151E-2,9.786046028E0
2.277459165E0,3.349951655E-2,9.272187948E-2,9.771689415E0
2.279698605E0,3.349951655E-2,8.793623000E-2,9.786046028E0
2.281931882E0,4.307080805E-2,9.272187948E-2,9.777072906E0
2.284168210E0,3.828516230E-2,8.793623000E-2,9.767501831E0
2.286405271E0,1.914258115E-2,8.793623000E-2,9.786046028E0
2.288637632E0,2.811566554E-2,7.836493850E-2,9.786046028E0
2.290864988E0,3.828516230E-2,1.064806059E-1,9.809974670E0
2.293112730E0,2.392822690E-2,9.750752151E-2,9.805189133E0
2.295349119E0,3.828516230E-2,1.070788130E-1,9.766903877E0
2.297588620E0,4.307080805E-2,9.750752151E-2,9.786046028E0
2.299822019E0,1.914258115E-2,9.272187948E-2,9.781260490E0
2.302059385E0,3.349951655E-2,8.315058798E-2,9.762118340E0
2.304292478E0,4.785645287E-3,7.896314561E-2,9.762118340E0
2.306516050E0,3.828516230E-2,9.272187948E-2,9.786046028E0
2.308750729E0,2.871387079E-2,8.315058798E-2,9.762118340E0
2.310987240E0,1.914258115E-2,9.272187948E-2,9.776474953E0
2.313242184E0,2.333002165E-2,7.357929647E-2,9.771689415E0
2.315478819E0,3.290131316E-2,8.315058798E-2,9.790832520E0
2.317715757E0,1.914258115E-2,8.315058798E-2,9.776474953E0
2.319948240E0,3.349951655E-2,8.793623000E-2,9.771689415E0
2.322185178E0,1.914258115E-2,1.070788130E-1,9.781260490E0
2.324420347E0,2.392822690E-2,8.793623000E-2,9.790832520E0
2.326656736E0,2.392822690E-2,1.022931710E-1,9.781260490E0
2.328892820E0,2.811566554E-2,7.836493850E-2,9.781260490E0
2.331129453E0,4.307080805E-2,8.315058798E-2,9.786046028E0
2.333363645E0,3.768695518E-2,8.793623000E-2,9.800403595E0
2.335590818E0,4.785645287E-3,9.332008660E-2,9.771689415E0
2.337827573E0,2.871387079E-2,9.750752151E-2,9.790832520E0
2.340075193E0,1.914258115E-2,8.793623000E-2,9.776474953E0
2.342312803E0,3.349951655E-2,8.793623000E-2,9.771689415E0
2.344549253E0,2.392822690E-2,9.750752151E-2,9.776474953E0
2.346782652E0,9.571290575E-3,8.793623000E-2,9.790832520E0
2.349018980E0,3.349951655E-2,8.793623000E-2,9.786046028E0
2.351255674E0,2.871387079E-2,1.070788130E-1,9.781260490E0
2.353492002E0,3.828516230E-2,8.315058798E-2,9.786046028E0
2.355728574E0,2.871387079E-2,8.793623000E-2,9.771689415E0
2.357965330E0,2.871387079E-2,8.315058798E-2,9.766903877E0
2.360200620E0,1.435693540E-2,7.836493850E-2,9.776474953E0
2.362436704E0,1.854437590E-2,6.879365444E-2,9.786046028E0
2.364672848E0,1.914258115E-2,9.750752151E-2,9.790832520E0
2.366906491E0,2.392822690E-2,1.118644550E-1,9.786046028E0
2.369131040E0,2.392822690E-2,9.272187948E-2,9.781260490E0
2.371367124E0,2.333002165E-2,7.836493850E-2,9.790832520E0
2.373605344E0,4.785645381E-2,9.212367237E-2,9.786046028E0
2.375849973E0,1.914258115E-2,9.750752151E-2,9.766903877E0
2.378090757E0,3.349951655E-2,1.022931710E-1,9.781260490E0
2.380319394E0,3.828516230E-2,8.793623000E-2,9.786046028E0
2.382565000E0,2.392822690E-2,9.272187948E-2,9.762118340E0
2.384799314E0,2.392822690E-2,9.272187948E-2,9.786046028E0
2.387037961E0,2.871387079E-2,1.022931710E-1,9.781260490E0
2.389269345E0,3.349951655E-2,9.272187948E-2,9.786046028E0
2.391498105E0,2.871387079E-2,1.166501045E-1,9.771689415E0
2.393742734E0,3.349951655E-2,8.793623000E-2,9.766903877E0
2.395966001E0,3.349951655E-2,1.118644550E-1,9.790832520E0
2.398204893E0,3.349951655E-2,1.070788130E-1,9.771689415E0
2.400441770E0,1.914258115E-2,1.022931710E-1,9.771689415E0
2.402690916E0,1.914258115E-2,9.272187948E-2,9.786046028E0
2.404923825E0,2.871387079E-2,9.272187948E-2,9.781260490E0
2.407164609E0,2.871387079E-2,9.750752151E-2,9.762118340E0
2.409398496E0,3.828516230E-2,9.272187948E-2,9.776474953E0
2.411636716E0,3.349951655E-2,1.070788130E-1,9.766903877E0
2.413870786E0,1.435693540E-2,1.070788130E-1,9.766903877E0
2.416106687E0,1.914258115E-2,9.272187948E-2,9.776474953E0
2.418342892E0,2.392822690E-2,1.070788130E-1,9.795618057E0
2.420579099E0,3.349951655E-2,9.750752151E-2,9.776474953E0
2.422815977E0,9.571290575E-3,8.315058798E-2,9.771689415E0
2.425052000E0,4.307080805E-2,1.118644550E-1,9.776474953E0
2.427288633E0,3.349951655E-2,9.272187948E-2,9.795618057E0
2.429525327E0,1.914258115E-2,9.272187948E-2,9.766903877E0
2.431760679E0,2.333002165E-2,7.836493850E-2,9.776474953E0
2.433996824E0,4.187439568E-3,7.896314561E-2,9.781260490E0
2.436233091E0,1.435693540E-2,8.793623000E-2,9.776474953E0
2.438470517E0,1.914258115E-2,1.070788130E-1,9.776474953E0
2.440708188E0,1.914258115E-2,9.750752151E-2,9.786046028E0
2.442931150E0,3.768695518E-2,8.315058798E-2,9.805189133E0
2.445179746E0,3.828516230E-2,9.750752151E-2,9.776474953E0
2.447409848E0,2.392822690E-2,1.022931710E-1,9.776474953E0
2.449636105E0,2.392822690E-2,9.272187948E-2,9.790832520E0
2.451886900E0,3.349951655E-2,9.272187948E-2,9.790832520E0
2.454122984E0,1.914258115E-2,9.750752151E-2,9.766903877E0
2.456363706E0,1.435693540E-2,1.022931710E-1,9.786046028E0
2.458595579E0,3.349951655E-2,8.315058798E-2,9.771689415E0
2.460829221E0,2.392822690E-2,8.793623000E-2,9.766903877E0
2.463058347E0,2.871387079E-2,8.315058798E-2,9.766903877E0
2.465305479E0,3.828516230E-2,1.070788130E-1,9.800403595E0
2.467539609E0,4.307080805E-2,9.750752151E-2,9.772287369E0
2.469773679E0,1.914258115E-2,1.022931710E-1,9.757332802E0
2.472012692E0,4.307080805E-2,9.272187948E-2,9.777072906E0
2.474249448E0,2.871387079E-2,9.750752151E-2,9.786046028E0
2.476487179E0,3.349951655E-2,8.793623000E-2,9.762716293E0
2.478721738E0,2.871387079E-2,1.070788130E-1,9.781260490E0
2.480958494E0,3.349951655E-2,1.022931710E-1,9.800403595E0
2.483195493E0,3.828516230E-2,1.022931710E-1,9.786046028E0
2.485430662E0,1.914258115E-2,9.332008660E-2,9.747760773E0
2.487663694E0,3.349951655E-2,1.022931710E-1,9.771689415E0
2.489890806E0,4.307080805E-2,9.750752151E-2,9.781859398E0
2.492139463E0,1.974078640E-2,1.118644550E-1,9.762118340E0
2.494376035E0,2.392822690E-2,1.070788130E-1,9.776474953E0
2.496615109E0,3.349951655E-2,9.272187948E-2,9.795618057E0
2.498848691E0,2.392822690E-2,9.272187948E-2,9.786046028E0
2.501085569E0,3.828516230E-2,1.022931710E-1,9.772287369E0
2.503320432E0,2.871387079E-2,1.070788130E-1,9.781260490E0
2.505553891E0,2.871387079E-2,9.272187948E-2,9.771689415E0
2.507779965E0,3.349951655E-2,9.272187948E-2,9.757930756E0
2.510020750E0,3.828516230E-2,9.750752151E-2,9.772287369E0
2.512265623E0,3.349951655E-2,8.315058798E-2,9.781260490E0
2.514504698E0,2.333002165E-2,8.315058798E-2,9.795618057E0
2.516738401E0,1.435693540E-2,8.793623000E-2,9.781260490E0
2.518961423E0,-0.000000000E0,8.853443712E-2,9.776474953E0
2.521210691E0,2.392822690E-2,9.272187948E-2,9.781260490E0
2.523446469E0,2.392822690E-2,9.750752151E-2,9.786046028E0
2.525686582E0,2.871387079E-2,8.315058798E-2,9.766903877E0
2.527919370E0,2.871387079E-2,7.836493850E-2,9.752547264E0
2.530155576E0,2.871387079E-2,7.836493850E-2,9.776474953E0
2.532392087E0,3.349951655E-2,9.750752151E-2,9.781260490E0
2.534625730E0,3.349951655E-2,8.315058798E-2,9.762118340E0
2.536854245E0,2.392822690E-2,8.793623000E-2,9.766903877E0
2.539102476E0,1.375873014E-2,7.836493850E-2,9.790832520E0
2.541336851E0,2.871387079E-2,8.793623000E-2,9.757332802E0
2.543575864E0,2.392822690E-2,8.315058798E-2,9.781260490E0
2.545808896E0,2.392822690E-2,9.272187948E-2,9.766903877E0
2.548045896E0,4.785645381E-2,9.690931439E-2,9.795618057E0
2.550281980E0,3.349951655E-2,8.315058798E-2,9.771689415E0
2.552518552E0,1.435693540E-2,1.022931710E-1,9.781260490E0
2.554755308E0,3.349951655E-2,9.272187948E-2,9.790832520E0
2.556990720E0,2.871387079E-2,9.750752151E-2,9.766903877E0
2.559227048E0,5.264209956E-2,9.690931439E-2,9.786046028E0
2.561463133E0,2.392822690E-2,1.022931710E-1,9.790832520E0
2.563699522E0,1.914258115E-2,1.022931710E-1,9.776474953E0
2.565936033E0,1.914258115E-2,9.272187948E-2,9.776474953E0
2.568169065E0,4.845465720E-2,1.118644550E-1,9.762118340E0
2.570393491E0,4.785645381E-2,9.272187948E-2,9.753145218E0
2.572632078E0,4.307080805E-2,1.118644550E-1,9.771689415E0
2.574875181E0,3.349951655E-2,9.272187948E-2,9.771689415E0
2.577119992E0,3.349951655E-2,1.118644550E-1,9.776474953E0
2.579356198E0,4.307080805E-2,9.272187948E-2,9.771689415E0
2.581590695E0,4.785645287E-3,8.374879509E-2,9.781260490E0
2.583825681E0,3.349951655E-2,8.793623000E-2,9.766903877E0
2.586062253E0,1.435693540E-2,1.070788130E-1,9.790832520E0
2.588296994E0,1.914258115E-2,1.022931710E-1,9.757332802E0
2.590524168E0,2.871387079E-2,1.070788130E-1,9.786046028E0
2.592770689E0,3.349951655E-2,8.315058798E-2,9.752547264E0
2.595006468E0,4.785645287E-3,8.853443712E-2,9.771689415E0
2.597245725E0,2.392822690E-2,9.272187948E-2,9.771689415E0
2.599476438E0,4.187439568E-3,8.374879509E-2,9.790832520E0
2.601701230E0,2.871387079E-2,9.750752151E-2,9.762118340E0
2.603942319E0,2.392822690E-2,8.793623000E-2,9.766903877E0
2.606188230E0,2.871387079E-2,9.750752151E-2,9.776474953E0
2.608428586E0,2.392822690E-2,8.315058798E-2,9.786046028E0
2.610663266E0,2.871387079E-2,8.315058798E-2,9.776474953E0
2.612897031E0,2.333002165E-2,6.879365444E-2,9.771689415E0
2.615132992E0,2.811566554E-2,8.315058798E-2,9.790832520E0
2.617369382E0,2.392822690E-2,9.272187948E-2,9.766903877E0
2.619605955E0,9.571290575E-3,9.272187948E-2,9.790832520E0
2.621842039E0,3.828516230E-2,9.272187948E-2,9.795618057E0
2.624078611E0,2.392822690E-2,9.272187948E-2,9.781260490E0
2.626315427E0,2.392822690E-2,8.793623000E-2,9.790832520E0
2.628551023E0,9.571290575E-3,9.750752151E-2,9.800403595E0
2.630787107E0,1.914258115E-2,9.272187948E-2,9.795618057E0
2.633023191E0,1.854437590E-2,8.315058798E-2,9.800403595E0
2.635259519E0,3.349951655E-2,1.022931710E-1,9.776474953E0
2.637493771E0,1.854437590E-2,8.315058798E-2,9.805189133E0
2.639719785E0,2.333002165E-2,8.315058798E-2,9.795618057E0
2.641956296E0,2.871387079E-2,9.750752151E-2,9.776474953E0
2.644205503E0,1.854437590E-2,8.793623000E-2,9.819545746E0
2.646443174E0,1.914258115E-2,8.793623000E-2,9.771689415E0
2.648680052E0,1.435693540E-2,9.750752151E-2,9.790832520E0
2.650913084E0,3.290131316E-2,7.836493850E-2,9.800403595E0
2.653149656E0,2.871387079E-2,9.750752151E-2,9.781260490E0
2.655385984E0,1.914258115E-2,1.070788130E-1,9.786046028E0
2.657622373E0,2.871387079E-2,9.750752151E-2,9.795618057E0
2.659859861E0,2.871387079E-2,8.793623000E-2,9.790832520E0
2.662095640E0,2.871387079E-2,8.793623000E-2,9.790832520E0
2.664330747E0,3.349951655E-2,1.070788130E-1,9.771689415E0
2.666564023E0,1.914258115E-2,1.118644550E-1,9.786046028E0
2.668789976E0,1.435693540E-2,9.272187948E-2,9.776474953E0
2.671024839E0,2.871387079E-2,1.070788130E-1,9.781260490E0
2.673263975E0,4.307080805E-2,9.272187948E-2,9.781260490E0
2.675514768E0,2.871387079E-2,1.022931710E-1,9.776474953E0
2.677751706E0,2.392822690E-2,8.793623000E-2,9.771689415E0
2.679988583E0,1.914258115E-2,1.022931710E-1,9.776474953E0
2.682220884E0,1.854437590E-2,7.836493850E-2,9.790832520E0
2.684456968E0,1.914258115E-2,8.793623000E-2,9.771689415E0
2.686693052E0,2.871387079E-2,8.793623000E-2,9.776474953E0
2.688929380E0,9.571290575E-3,9.750752151E-2,9.776474953E0
2.691165769E0,1.435693540E-2,1.022931710E-1,9.790832520E0
2.693402097E0,1.375873014E-2,7.836493850E-2,9.795618057E0
2.695638730E0,1.435693540E-2,1.070788130E-1,9.776474953E0
2.697875730E0,2.392822690E-2,1.070788130E-1,9.781260490E0
2.700110776E0,2.333002165E-2,7.836493850E-2,9.786046028E0
2.702346860E0,2.392822690E-2,9.750752151E-2,9.766903877E0
2.704579466E0,3.349951655E-2,1.070788130E-1,9.786046028E0
2.706805601E0,1.435693540E-2,9.272187948E-2,9.790832520E0
2.709055662E0,2.392822690E-2,7.836493850E-2,9.771689415E0
2.711291990E0,3.828516230E-2,1.070788130E-1,9.776474953E0
2.713532041E0,2.871387079E-2,9.750752151E-2,9.786046028E0
2.715765684E0,4.307080805E-2,9.272187948E-2,9.776474953E0
2.718000974E0,2.392822690E-2,9.750752151E-2,9.771689415E0
2.720237119E0,3.828516230E-2,9.750752151E-2,9.766903877E0
2.722473324E0,3.828516230E-2,1.022931710E-1,9.781260490E0
2.724709531E0,1.914258115E-2,8.793623000E-2,9.786046028E0
2.726946287E0,1.914258115E-2,8.315058798E-2,9.757332802E0
2.729182371E0,2.392822690E-2,1.118644550E-1,9.790832520E0
2.731419919E0,1.914258115E-2,9.272187948E-2,9.786046028E0
2.733654050E0,1.435693540E-2,8.793623000E-2,9.786046028E0
2.735885435E0,3.828516230E-2,9.272187948E-2,9.786046028E0
2.738124021E0,2.392822690E-2,8.793623000E-2,9.790832520E0
2.740352781E0,1.914258115E-2,1.022931710E-1,9.790832520E0
2.742600949E0,9.571290575E-3,9.332008660E-2,9.766903877E0
2.744835935E0,2.392822690E-2,8.793623000E-2,9.762118340E0
2.747074643E0,1.435693540E-2,8.315058798E-2,9.771689415E0
2.749308896E0,3.828516230E-2,8.793623000E-2,9.781260490E0
2.751545896E0,2.811566554E-2,7.357929647E-2,9.800403595E0
2.753778013E0,2.871387079E-2,7.836493850E-2,9.776474953E0
2.756005064E0,1.435693540E-2,8.315058798E-2,9.786046028E0
2.758250181E0,2.871387079E-2,8.315058798E-2,9.776474953E0
2.760478025E0,3.828516230E-2,1.022931710E-1,9.766903877E0
2.762729062E0,2.392822690E-2,8.315058798E-2,9.752547264E0
2.764962156E0,1.914258115E-2,8.793623000E-2,9.771689415E0
2.767201597E0,3.828516230E-2,9.272187948E-2,9.757930756E0
2.769432554E0,2.392822690E-2,6.879365444E-2,9.752547264E0
2.771658383E0,1.914258115E-2,7.836493850E-2,9.776474953E0
2.773903989E0,2.871387079E-2,1.022931710E-1,9.771689415E0
2.776143063E0,2.871387079E-2,9.750752151E-2,9.776474953E0
2.778382504E0,1.435693540E-2,8.315058798E-2,9.762118340E0
2.780616452E0,2.871387079E-2,1.022931710E-1,9.771689415E0
2.782848996E0,9.571290575E-3,9.810572863E-2,9.762118340E0
2.785076414E0,1.914258115E-2,1.118644550E-1,9.781260490E0
2.787325742E0,2.871387079E-2,1.118644550E-1,9.776474953E0
2.789561033E0,2.871387079E-2,9.272187948E-2,9.781260490E0
2.791800168E0,2.392822690E-2,1.070788130E-1,9.790832520E0
2.794033140E0,4.307080805E-2,1.022931710E-1,9.776474953E0
2.796269529E0,1.914258115E-2,9.750752151E-2,9.805189133E0
2.798506040E0,1.914258115E-2,9.272187948E-2,9.781260490E0
2.800739133E0,2.871387079E-2,1.022931710E-1,9.781260490E0
2.802966733E0,3.409772366E-2,1.214357466E-1,9.771689415E0
2.805212339E0,3.349951655E-2,1.022931710E-1,9.781260490E0
2.807450253E0,2.871387079E-2,8.315058798E-2,9.766903877E0
2.809687131E0,3.828516230E-2,8.793623000E-2,9.786046028E0
2.811924131E0,3.828516230E-2,9.750752151E-2,9.795618057E0
2.814159666E0,2.392822690E-2,1.022931710E-1,9.786046028E0
2.816396726E0,2.392822690E-2,9.272187948E-2,9.786046028E0
2.818632261E0,2.871387079E-2,8.315058798E-2,9.766903877E0
2.820868650E0,2.392822690E-2,9.750752151E-2,9.776474953E0
2.823105711E0,2.333002165E-2,8.315058798E-2,9.790832520E0
2.825341001E0,3.828516230E-2,1.022931710E-1,9.776474953E0
2.827574155E0,2.392822690E-2,9.272187948E-2,9.776474953E0
2.829801266E0,3.768695518E-2,7.357929647E-2,9.790832520E0
2.832049802E0,2.333002165E-2,7.836493850E-2,9.786046028E0
2.834286130E0,1.854437590E-2,7.836493850E-2,9.790832520E0
2.836525205E0,3.828516230E-2,8.793623000E-2,9.771689415E0
2.838755918E0,4.187439568E-3,7.896314561E-2,9.786046028E0
2.840984312E0,5.264209956E-2,9.212367237E-2,9.786644936E0
2.843230894E0,1.854437590E-2,6.879365444E-2,9.766903877E0
2.845467039E0,1.375873014E-2,6.879365444E-2,9.786046028E0
2.847703183E0,2.392822690E-2,8.315058798E-2,9.776474953E0
2.849927671E0,2.392822690E-2,8.793623000E-2,9.786046028E0
2.852175840E0,3.290131316E-2,6.400800496E-2,9.776474953E0
2.854412351E0,2.871387079E-2,9.272187948E-2,9.771689415E0
2.856651914E0,3.768695518E-2,7.357929647E-2,9.800403595E0
2.858885740E0,2.871387079E-2,8.793623000E-2,9.786046028E0
2.861120786E0,2.392822690E-2,7.357929647E-2,9.757332802E0
2.863357175E0,2.871387079E-2,1.022931710E-1,9.776474953E0
2.865590513E0,3.349951655E-2,8.793623000E-2,9.790832520E0
2.867815000E0,3.290131316E-2,7.357929647E-2,9.776474953E0
2.870051511E0,1.914258115E-2,1.022931710E-1,9.786046028E0
2.872287778E0,2.392822690E-2,8.793623000E-2,9.781260490E0
2.874531065E0,3.349951655E-2,8.315058798E-2,9.786046028E0
2.876778745E0,2.871387079E-2,9.272187948E-2,9.771689415E0
2.879013852E0,1.914258115E-2,9.272187948E-2,9.766903877E0
2.881249753E0,1.914258115E-2,9.272187948E-2,9.776474953E0
2.883483273E0,3.349951655E-2,9.750752151E-2,9.776474953E0
2.885719480E0,3.349951655E-2,1.022931710E-1,9.786046028E0
2.887956113E0,2.392822690E-2,1.070788130E-1,9.771689415E0
2.890192380E0,2.392822690E-2,8.793623000E-2,9.790832520E0
2.892426145E0,3.828516230E-2,1.070788130E-1,9.781260490E0
2.894651365E0,2.392822690E-2,9.750752151E-2,9.766903877E0
2.896889463E0,9.571290575E-3,9.810572863E-2,9.766903877E0
2.899134702E0,2.871387079E-2,1.022931710E-1,9.766903877E0
2.901364438E0,9.571290575E-3,1.022931710E-1,9.776474953E0
2.903613096E0,1.435693540E-2,9.750752151E-2,9.776474953E0
2.905847227E0,2.871387079E-2,9.272187948E-2,9.781260490E0
2.908084592E0,3.349951655E-2,8.793623000E-2,9.781260490E0
2.910317380E0,3.828516230E-2,9.272187948E-2,9.786046028E0
2.912555539E0,2.871387079E-2,7.836493850E-2,9.776474953E0
2.914791074E0,2.871387079E-2,8.315058798E-2,9.781260490E0
2.917027707E0,3.828516230E-2,1.070788130E-1,9.766903877E0
2.919263365E0,9.571290575E-3,9.750752151E-2,9.771689415E0
2.921499754E0,3.349951655E-2,8.315058798E-2,9.781260490E0
2.923736082E0,1.914258115E-2,1.022931710E-1,9.771689415E0
2.925972410E0,2.871387079E-2,9.272187948E-2,9.786046028E0
2.928206052E0,9.571290575E-3,8.793623000E-2,9.790832520E0
2.930434080E0,4.307080805E-2,8.315058798E-2,9.757930756E0
2.932678891E0,2.811566554E-2,6.879365444E-2,9.781260490E0
2.934906614E0,3.349951655E-2,8.793623000E-2,9.766903877E0
2.937149167E0,1.914258115E-2,8.315058798E-2,9.771689415E0
2.939389890E0,2.392822690E-2,1.070788130E-1,9.776474953E0
2.941628415E0,1.435693540E-2,1.070788130E-1,9.781260490E0
2.943864377E0,-0.000000000E0,9.332008660E-2,9.795618057E0
2.946100095E0,7.178468257E-2,9.690931439E-2,9.786644936E0
2.948332944E0,2.392822690E-2,9.750752151E-2,9.776474953E0
2.950559324E0,4.725824669E-2,6.819544733E-2,9.786046028E0
2.952807066E0,2.871387079E-2,8.793623000E-2,9.781260490E0
2.955043394E0,2.871387079E-2,9.750752151E-2,9.809974670E0
2.957282712E0,-0.000000000E0,1.220339537E-1,9.790832520E0
2.959516111E0,6.699903309E-2,8.733802289E-2,9.786644936E0
2.961752439E0,1.016949583E-2,1.124626622E-1,9.757332802E0
2.963989011E0,4.307080805E-2,8.793623000E-2,9.786046028E0
2.966225828E0,-5.383851007E-3,8.853443712E-2,9.809376717E0
2.968461179E0,6.699903309E-2,9.212367237E-2,9.781859398E0
2.970695737E0,1.435693540E-2,9.750752151E-2,9.766903877E0
2.972926449E0,2.392822690E-2,1.070788130E-1,9.766903877E0
2.975169675E0,2.871387079E-2,1.022931710E-1,9.771689415E0
2.977406187E0,-9.571290575E-3,1.076770201E-1,9.790233612E0
2.979644041E0,8.614161611E-2,9.212367237E-2,9.762716293E0
2.981878904E0,9.571290575E-3,9.332008660E-2,9.762118340E0
2.984115659E0,3.349951655E-2,1.022931710E-1,9.786046028E0
2.986351011E0,1.914258115E-2,1.022931710E-1,9.762118340E0
2.988587156E0,2.333002165E-2,6.400800496E-2,9.781260490E0
2.990823484E0,2.871387079E-2,1.022931710E-1,9.776474953E0
2.993059812E0,3.828516230E-2,8.315058798E-2,9.747760773E0
2.995296201E0,2.392822690E-2,8.793623000E-2,9.757332802E0
2.997532468E0,2.392822690E-2,7.836493850E-2,9.766903877E0
2.999764645E0,5.204389244E-2,7.776673883E-2,9.795618057E0
3.001985227E0,4.307080805E-2,9.750752151E-2,9.752547264E0
3.004229002E0,2.871387079E-2,9.272187948E-2,9.781260490E0
3.006477537E0,-5.383851007E-3,8.853443712E-2,9.790832520E0
3.008718076E0,6.699903309E-2,8.733802289E-2,9.772287369E0
3.010953244E0,9.571290575E-3,9.810572863E-2,9.757332802E0
3.013186155E0,5.264209956E-2,8.315058798E-2,9.753145218E0
3.015422361E0,1.375873014E-2,7.357929647E-2,9.781260490E0
3.017660032E0,1.435693540E-2,9.750752151E-2,9.762118340E0
3.019895689E0,1.914258115E-2,9.750752151E-2,9.771689415E0
3.022131162E0,2.871387079E-2,9.272187948E-2,9.776474953E0
3.024367123E0,4.785645381E-2,9.690931439E-2,9.795618057E0
3.026603512E0,2.871387079E-2,9.272187948E-2,9.795618057E0
3.028839902E0,3.768695518E-2,8.315058798E-2,9.790832520E0
3.031073484E0,1.914258115E-2,9.750752151E-2,9.786046028E0
3.033297849E0,4.785645381E-2,1.064806059E-1,9.781260490E0
3.035534482E0,3.828516230E-2,8.315058798E-2,9.766903877E0
3.037770750E0,9.571290575E-3,1.022931710E-1,9.781260490E0
3.040006773E0,1.914258115E-2,1.022931710E-1,9.776474953E0
3.042245603E0,3.349951655E-2,9.272187948E-2,9.790832520E0
3.044481992E0,1.435693540E-2,1.118644550E-1,9.766903877E0
3.046719602E0,2.871387079E-2,1.166501045E-1,9.781260490E0
3.048955381E0,2.871387079E-2,1.070788130E-1,9.776474953E0
3.051190855E0,3.349951655E-2,1.070788130E-1,9.771689415E0
3.053427122E0,3.349951655E-2,7.836493850E-2,9.771689415E0
3.055664060E0,2.871387079E-2,8.793623000E-2,9.766903877E0
3.057899351E0,9.571290575E-3,1.166501045E-1,9.800403595E0
3.060136045E0,3.349951655E-2,1.022931710E-1,9.776474953E0
3.062375059E0,2.871387079E-2,9.272187948E-2,9.762118340E0
3.064616453E0,2.392822690E-2,9.750752151E-2,9.786046028E0
3.066844541E0,2.392822690E-2,1.022931710E-1,9.766903877E0
3.069080746E0,3.349951655E-2,9.272187948E-2,9.757332802E0
3.071315488E0,2.871387079E-2,1.070788130E-1,9.786046028E0
3.073555539E0,4.307080805E-2,9.750752151E-2,9.781260490E0
3.075792905E0,3.828516230E-2,8.793623000E-2,9.781260490E0
3.078030027E0,2.871387079E-2,9.750752151E-2,9.766903877E0
3.080263730E0,2.392822690E-2,8.793623000E-2,9.790832520E0
3.082501645E0,2.333002165E-2,6.879365444E-2,9.790832520E0
3.084733762E0,3.828516230E-2,8.315058798E-2,9.781260490E0
3.086970640E0,2.871387079E-2,8.315058798E-2,9.766903877E0
3.089208371E0,2.333002165E-2,8.315058798E-2,9.786046028E0
3.091444944E0,2.871387079E-2,9.750752151E-2,9.776474953E0
3.093680601E0,4.307080805E-2,1.022931710E-1,9.762118340E0
3.095915952E0,3.349951655E-2,9.750752151E-2,9.776474953E0
3.098152341E0,3.828516230E-2,1.022931710E-1,9.766903877E0
3.100387937E0,2.871387079E-2,8.793623000E-2,9.781260490E0
3.102625486E0,4.307080805E-2,7.836493850E-2,9.766903877E0
3.104861204E0,2.811566554E-2,6.879365444E-2,9.800403595E0
3.107097898E0,2.392822690E-2,7.836493850E-2,9.766903877E0
3.109334837E0,2.871387079E-2,9.750752151E-2,9.776474953E0
3.111572873E0,2.811566554E-2,7.836493850E-2,9.776474953E0
3.113820493E0,2.871387079E-2,9.750752151E-2,9.771689415E0
3.116056394E0,4.307080805E-2,1.064806059E-1,9.800403595E0
3.118289610E0,3.768695518E-2,8.733802289E-2,9.809974670E0
3.120514341E0,2.392822690E-2,9.750752151E-2,9.771689415E0
3.122762388E0,3.828516230E-2,7.836493850E-2,9.771689415E0
3.124999082E0,3.349951655E-2,8.315058798E-2,9.771689415E0
3.127239072E0,1.914258115E-2,8.793623000E-2,9.776474953E0
3.129471494E0,2.871387079E-2,1.022931710E-1,9.766903877E0
3.131707761E0,2.871387079E-2,1.070788130E-1,9.776474953E0
3.133943539E0,4.307080805E-2,9.750752151E-2,9.771689415E0
3.136177426E0,5.742774159E-2,8.733802289E-2,9.743574142E0
3.138403379E0,2.392822690E-2,9.750752151E-2,9.781260490E0
3.140642576E0,2.871387079E-2,9.272187948E-2,9.776474953E0
3.142897947E0,2.392822690E-2,9.750752151E-2,9.781260490E0
3.145128415E0,2.871387079E-2,9.750752151E-2,9.786046028E0
3.147361692E0,5.264209956E-2,9.690931439E-2,9.786046028E0
3.149584653E0,4.785645381E-2,8.315058798E-2,9.762716293E0
3.151833494E0,4.785645381E-2,9.212367237E-2,9.786046028E0
3.154070127E0,2.871387079E-2,1.070788130E-1,9.771689415E0
3.156309323E0,2.871387079E-2,9.272187948E-2,9.786046028E0
3.158542966E0,3.828516230E-2,9.272187948E-2,9.766903877E0
3.160779783E0,2.871387079E-2,1.022931710E-1,9.776474953E0
3.163015134E0,3.349951655E-2,1.022931710E-1,9.776474953E0
3.165251585E0,4.307080805E-2,9.272187948E-2,9.772287369E0
3.167484067E0,2.871387079E-2,9.272187948E-2,9.776474953E0
3.169708921E0,3.349951655E-2,1.022931710E-1,9.781260490E0
3.171948118E0,4.785645381E-2,9.750752151E-2,9.777072906E0
3.174196348E0,2.871387079E-2,8.793623000E-2,9.795618057E0
3.176435605E0,3.349951655E-2,9.750752151E-2,9.800403595E0
3.178672117E0,2.392822690E-2,1.022931710E-1,9.776474953E0
3.180906004E0,2.871387079E-2,1.022931710E-1,9.766903877E0
3.183141294E0,1.914258115E-2,9.272187948E-2,9.771689415E0
3.185377439E0,1.435693540E-2,1.070788130E-1,9.776474953E0
3.187610959E0,2.392822690E-2,8.793623000E-2,9.786046028E0
3.189838865E0,9.571290575E-3,1.022931710E-1,9.776474953E0
3.192086484E0,3.828516230E-2,1.022931710E-1,9.771689415E0
3.194322691E0,3.828516230E-2,8.315058798E-2,9.762716293E0
3.196561826E0,2.392822690E-2,8.793623000E-2,9.766903877E0
3.198795835E0,4.247260094E-2,5.922235921E-2,9.767501831E0
3.201031187E0,1.375873014E-2,7.357929647E-2,9.771689415E0
3.203267392E0,3.349951655E-2,9.750752151E-2,9.771689415E0
3.205502927E0,2.871387079E-2,8.793623000E-2,9.776474953E0
3.207739988E0,3.828516230E-2,9.750752151E-2,9.776474953E0
3.209976316E0,1.435693540E-2,9.750752151E-2,9.776474953E0
3.212212827E0,2.871387079E-2,8.793623000E-2,9.752547264E0
3.214449216E0,2.871387079E-2,9.750752151E-2,9.757332802E0
3.216685972E0,2.392822690E-2,9.750752151E-2,9.762118340E0
3.218921079E0,2.871387079E-2,9.750752151E-2,9.762118340E0
3.221157468E0,4.307080805E-2,1.022931710E-1,9.762716293E0
3.223393735E0,4.247260094E-2,8.315058798E-2,9.795618057E0
3.225629941E0,2.871387079E-2,9.272187948E-2,9.766903877E0
3.227866453E0,2.871387079E-2,9.272187948E-2,9.786046028E0
3.230102781E0,3.828516230E-2,9.750752151E-2,9.776474953E0
3.232339109E0,1.854437590E-2,8.793623000E-2,9.795618057E0
3.234569212E0,2.392822690E-2,9.272187948E-2,9.771689415E0
3.236804197E0,2.392822690E-2,9.750752151E-2,9.771689415E0
3.239047238E0,3.828516230E-2,9.750752151E-2,9.766903877E0
3.241284665E0,1.914258115E-2,9.272187948E-2,9.795618057E0
3.243521787E0,1.375873014E-2,7.836493850E-2,9.781260490E0
3.245756345E0,1.914258115E-2,8.315058798E-2,9.781260490E0
3.247992734E0,3.349951655E-2,9.272187948E-2,9.757332802E0
3.250229307E0,3.349951655E-2,8.793623000E-2,9.757332802E0
3.252463315E0,8.973085321E-3,6.939185411E-2,9.771689415E0
3.254689390E0,2.871387079E-2,9.272187948E-2,9.771689415E0
3.256937498E0,3.349951655E-2,8.315058798E-2,9.781260490E0
3.259173765E0,9.571290575E-3,8.853443712E-2,9.766903877E0
3.261413144E0,2.871387079E-2,1.070788130E-1,9.771689415E0
3.263646543E0,2.392822690E-2,1.022931710E-1,9.766903877E0
3.265882810E0,2.392822690E-2,9.272187948E-2,9.752547264E0
3.268118588E0,2.871387079E-2,1.022931710E-1,9.786046028E0
3.270350400E0,1.914258115E-2,8.793623000E-2,9.776474953E0
3.272580991E0,3.349951655E-2,1.022931710E-1,9.781260490E0
3.274827573E0,2.871387079E-2,8.793623000E-2,9.790832520E0
3.277064450E0,2.871387079E-2,9.272187948E-2,9.766903877E0
3.279302670E0,2.392822690E-2,8.315058798E-2,9.771689415E0
3.281533323E0,3.349951655E-2,9.750752151E-2,9.776474953E0
3.283759519E0,3.828516230E-2,8.793623000E-2,9.771689415E0
3.286009275E0,2.871387079E-2,9.750752151E-2,9.762118340E0
3.288243100E0,3.349951655E-2,9.272187948E-2,9.776474953E0
3.290473020E0,3.828516230E-2,9.272187948E-2,9.786046028E0
3.292717771E0,3.349951655E-2,8.793623000E-2,9.771689415E0
3.294953794E0,4.307080805E-2,8.793623000E-2,9.781260490E0
3.297192868E0,1.854437590E-2,8.793623000E-2,9.795618057E0
3.299423520E0,1.914258115E-2,8.793623000E-2,9.771689415E0
3.301648069E0,2.871387079E-2,8.793623000E-2,9.757332802E0
3.303888303E0,3.828516230E-2,1.022931710E-1,9.781260490E0
3.306136472E0,3.349951655E-2,9.750752151E-2,9.766903877E0
3.308371519E0,2.871387079E-2,1.118644550E-1,9.776474953E0
3.310598447E0,3.828516230E-2,9.750752151E-2,9.781260490E0
3.312843626E0,2.392822690E-2,8.315058798E-2,9.762118340E0
3.315080076E0,3.349951655E-2,9.272187948E-2,9.781260490E0
3.317319638E0,2.811566554E-2,7.836493850E-2,9.800403595E0
3.319552671E0,2.392822690E-2,8.793623000E-2,9.762118340E0
3.321789060E0,2.871387079E-2,8.315058798E-2,9.766903877E0
3.324026060E0,2.392822690E-2,8.793623000E-2,9.781260490E0
3.326261411E0,1.914258115E-2,9.272187948E-2,9.771689415E0
3.328497617E0,3.828516230E-2,1.070788130E-1,9.776474953E0
3.330733884E0,2.871387079E-2,9.750752151E-2,9.757332802E0
3.332970212E0,2.392822690E-2,9.750752151E-2,9.776474953E0
3.335206602E0,4.785645287E-3,7.896314561E-2,9.766903877E0
3.337438718E0,1.435693540E-2,9.272187948E-2,9.786046028E0
3.339661862E0,3.349951655E-2,9.272187948E-2,9.786046028E0
3.341912351E0,1.435693540E-2,1.166501045E-1,9.795618057E0
3.344151548E0,9.571290575E-3,8.793623000E-2,9.790832520E0
3.346391843E0,4.785645381E-2,1.022931710E-1,9.767501831E0
3.348624997E0,2.871387079E-2,9.750752151E-2,9.776474953E0
3.350860349E0,2.871387079E-2,9.272187948E-2,9.790832520E0
3.353096677E0,2.392822690E-2,9.272187948E-2,9.786046028E0
3.355332700E0,2.333002165E-2,7.357929647E-2,9.795618057E0
3.357569272E0,2.871387079E-2,8.315058798E-2,9.786046028E0
3.359806089E0,1.914258115E-2,8.315058798E-2,9.771689415E0
3.362041441E0,2.392822690E-2,1.022931710E-1,9.781260490E0
3.364274656E0,1.914258115E-2,1.022931710E-1,9.771689415E0
3.366499265E0,4.307080805E-2,8.793623000E-2,9.781260490E0
3.368735471E0,1.914258115E-2,7.836493850E-2,9.771689415E0
3.370974424E0,1.435693540E-2,7.836493850E-2,9.776474953E0
3.373226072E0,2.871387079E-2,9.272187948E-2,9.776474953E0
3.375463377E0,2.871387079E-2,8.793623000E-2,9.762118340E0
3.377699277E0,3.349951655E-2,9.750752151E-2,9.762118340E0
3.379931333E0,2.871387079E-2,8.793623000E-2,9.776474953E0
3.382167416E0,1.375873014E-2,7.357929647E-2,9.795618057E0
3.384403744E0,1.914258115E-2,8.793623000E-2,9.795618057E0
3.386640134E0,2.871387079E-2,8.315058798E-2,9.786046028E0
3.388876462E0,2.392822690E-2,7.357929647E-2,9.762118340E0
3.391112791E0,3.768695518E-2,7.357929647E-2,9.781260490E0
3.393349363E0,3.349951655E-2,7.836493850E-2,9.776474953E0
3.395586179E0,1.914258115E-2,8.315058798E-2,9.786046028E0
3.397821470E0,2.871387079E-2,9.750752151E-2,9.781260490E0
3.400057554E0,2.392822690E-2,9.272187948E-2,9.771689415E0
3.402293638E0,5.264209956E-2,8.255238086E-2,9.772287369E0
3.404528257E0,2.871387079E-2,9.272187948E-2,9.766903877E0
3.406759519E0,1.914258115E-2,1.070788130E-1,9.781260490E0
3.408999753E0,3.828516230E-2,8.793623000E-2,9.776474953E0
3.411227659E0,2.931207791E-2,1.022931710E-1,9.738189697E0
3.413478330E0,2.392822690E-2,8.793623000E-2,9.795618057E0
3.415711668E0,1.914258115E-2,9.272187948E-2,9.776474953E0
3.417950742E0,2.392822690E-2,8.315058798E-2,9.766903877E0
3.420183958E0,2.871387079E-2,1.022931710E-1,9.786046028E0
3.422420103E0,3.349951655E-2,1.022931710E-1,9.781260490E0
3.424656492E0,1.914258115E-2,9.272187948E-2,9.781260490E0
3.426892759E0,1.914258115E-2,8.315058798E-2,9.766903877E0
3.429129453E0,4.307080805E-2,8.793623000E-2,9.790832520E0
3.431366392E0,2.392822690E-2,9.272187948E-2,9.771689415E0
3.433601255E0,3.349951655E-2,1.118644550E-1,9.771689415E0
3.435837583E0,4.307080805E-2,9.750752151E-2,9.776474953E0
3.438075314E0,2.333002165E-2,7.836493850E-2,9.786046028E0
3.440316953E0,3.349951655E-2,8.793623000E-2,9.781260490E0
3.442546690E0,2.392822690E-2,1.022931710E-1,9.776474953E0
3.444783323E0,1.914258115E-2,8.793623000E-2,9.771689415E0
3.447019101E0,2.871387079E-2,1.070788130E-1,9.795618057E0
3.449256284E0,-0.000000000E0,8.374879509E-2,9.771689415E0
3.451491392E0,2.392822690E-2,9.272187948E-2,9.795618057E0
3.453727415E0,1.435693540E-2,9.750752151E-2,9.776474953E0
3.455963804E0,2.811566554E-2,7.357929647E-2,9.771689415E0
3.458197263E0,3.349951655E-2,1.022931710E-1,9.771689415E0
3.460424802E0,1.914258115E-2,9.750752151E-2,9.781260490E0
3.462672788E0,2.871387079E-2,9.272187948E-2,9.786046028E0
3.464909177E0,2.871387079E-2,9.750752151E-2,9.776474953E0
3.467149167E0,2.392822690E-2,7.836493850E-2,9.766903877E0
3.469381650E0,2.871387079E-2,8.793623000E-2,9.771689415E0
3.471618162E0,3.828516230E-2,8.315058798E-2,9.781260490E0
3.473853758E0,9.571290575E-3,8.793623000E-2,9.781260490E0
3.476090330E0,2.392822690E-2,1.022931710E-1,9.786046028E0
3.478326536E0,4.307080805E-2,9.212367237E-2,9.795618057E0
3.480562742E0,3.828516230E-2,1.070788130E-1,9.766903877E0
3.482799314E0,9.571290575E-3,8.315058798E-2,9.781260490E0
3.485033384E0,8.973085321E-3,7.357929647E-2,9.776474953E0
3.487256894E0,1.914258115E-2,8.315058798E-2,9.781260490E0
3.489496336E0,3.290131316E-2,7.836493850E-2,9.795618057E0
3.491743832E0,2.392822690E-2,8.315058798E-2,9.781260490E0
3.493983213E0,1.914258115E-2,8.315058798E-2,9.786046028E0
3.496219663E0,1.914258115E-2,8.793623000E-2,9.762118340E0
3.498452818E0,3.828516230E-2,8.315058798E-2,9.771689415E0
3.500686276E0,2.871387079E-2,9.272187948E-2,9.766903877E0
3.502914487E0,1.914258115E-2,8.793623000E-2,9.771689415E0
3.505161558E0,2.392822690E-2,9.750752151E-2,9.786046028E0
3.507394895E0,2.333002165E-2,7.357929647E-2,9.781260490E0
3.509625485E0,4.307080805E-2,1.022931710E-1,9.766903877E0
3.511870359E0,2.871387079E-2,9.272187948E-2,9.766903877E0
3.514106504E0,3.349951655E-2,1.022931710E-1,9.771689415E0
3.516342710E0,4.785645381E-2,1.064806059E-1,9.790832520E0
3.518566586E0,3.349951655E-2,9.750752151E-2,9.776474953E0
3.520796506E0,4.307080805E-2,9.272187948E-2,9.767501831E0
3.523039731E0,2.871387079E-2,1.022931710E-1,9.790832520E0
3.525289975E0,3.349951655E-2,1.022931710E-1,9.771689415E0
3.527525083E0,3.349951655E-2,1.070788130E-1,9.771689415E0
3.529748350E0,3.349951655E-2,9.750752151E-2,9.795618057E0
3.531984922E0,1.914258115E-2,8.315058798E-2,9.776474953E0
3.534233152E0,3.349951655E-2,1.022931710E-1,9.776474953E0
3.536472470E0,3.349951655E-2,9.750752151E-2,9.766903877E0
3.538709286E0,3.828516230E-2,9.750752151E-2,9.776474953E0
3.540941831E0,3.349951655E-2,9.750752151E-2,9.790832520E0
3.543177976E0,3.349951655E-2,8.315058798E-2,9.771689415E0
3.545414060E0,3.290131316E-2,6.879365444E-2,9.776474953E0
3.547647397E0,1.435693540E-2,9.272187948E-2,9.771689415E0
3.549874998E0,2.871387079E-2,8.315058798E-2,9.786046028E0
3.552122984E0,3.349951655E-2,8.793623000E-2,9.762118340E0
3.554359373E0,3.828516230E-2,1.022931710E-1,9.771689415E0
3.556599362E0,2.392822690E-2,7.357929647E-2,9.766903877E0
3.558831724E0,1.854437590E-2,7.357929647E-2,9.776474953E0
3.561067869E0,2.871387079E-2,8.315058798E-2,9.757332802E0
3.563303892E0,2.392822690E-2,9.272187948E-2,9.786046028E0
3.565540220E0,2.333002165E-2,8.793623000E-2,9.800403595E0
3.567773679E0,2.392822690E-2,1.022931710E-1,9.762118340E0
3.569998349E0,2.392822690E-2,9.272187948E-2,9.771689415E0
3.572235227E0,2.811566554E-2,6.879365444E-2,9.776474953E0
3.574472165E0,4.307080805E-2,7.357929647E-2,9.772287369E0
3.576710020E0,4.785645381E-2,8.793623000E-2,9.772287369E0
3.578946531E0,1.435693540E-2,8.793623000E-2,9.786046028E0
3.581182493E0,3.349951655E-2,9.750752151E-2,9.776474953E0
3.583418577E0,2.871387079E-2,9.272187948E-2,9.790832520E0
3.585654478E0,2.392822690E-2,8.793623000E-2,9.771689415E0
3.587891477E0,3.768695518E-2,7.357929647E-2,9.781260490E0
3.590128721E0,2.333002165E-2,8.315058798E-2,9.790832520E0
3.592365110E0,2.392822690E-2,1.022931710E-1,9.795618057E0
3.594600034E0,4.307080805E-2,1.022931710E-1,9.790832520E0
3.596835934E0,4.785645381E-2,1.022931710E-1,9.772287369E0
3.599074338E0,1.914258115E-2,9.272187948E-2,9.776474953E0
3.601319394E0,2.392822690E-2,9.272187948E-2,9.790832520E0
3.603554990E0,2.871387079E-2,1.070788130E-1,9.786046028E0
3.605788572E0,3.828516230E-2,8.793623000E-2,9.776474953E0
3.608016660E0,3.349951655E-2,1.022931710E-1,9.771689415E0
3.610252805E0,2.871387079E-2,1.070788130E-1,9.786046028E0
3.612488218E0,3.349951655E-2,1.022931710E-1,9.762118340E0
3.614726011E0,2.871387079E-2,8.793623000E-2,9.786046028E0
3.616962095E0,2.871387079E-2,9.272187948E-2,9.762118340E0
3.619198850E0,3.349951655E-2,9.750752151E-2,9.781260490E0
3.621435484E0,2.871387079E-2,1.070788130E-1,9.766903877E0
3.623671201E0,4.307080805E-2,8.793623000E-2,9.786046028E0
3.625910947E0,3.349951655E-2,9.750752151E-2,9.766903877E0
3.628156491E0,1.914258115E-2,8.793623000E-2,9.781260490E0
3.630382626E0,9.571290575E-3,7.896314561E-2,9.776474953E0
3.632631039E0,4.307080805E-2,9.750752151E-2,9.771689415E0
3.634864011E0,3.349951655E-2,1.070788130E-1,9.757332802E0
3.637103880E0,3.828516230E-2,8.793623000E-2,9.766903877E0
3.639336851E0,9.571290575E-3,9.332008660E-2,9.771689415E0
3.641572935E0,3.828516230E-2,9.272187948E-2,9.776474953E0
3.643809263E0,2.392822690E-2,9.272187948E-2,9.771689415E0
3.646046568E0,1.914258115E-2,8.793623000E-2,9.771689415E0
3.648278806E0,1.435693540E-2,8.793623000E-2,9.776474953E0
3.650502377E0,2.333002165E-2,7.357929647E-2,9.781260490E0
3.652737973E0,1.914258115E-2,6.879365444E-2,9.752547264E0
3.654990537E0,2.392822690E-2,9.272187948E-2,9.805189133E0
3.657229916E0,9.571290575E-3,8.374879509E-2,9.762118340E0
3.659467160E0,2.392822690E-2,8.793623000E-2,9.786046028E0
3.661700742E0,1.914258115E-2,7.836493850E-2,9.752547264E0
3.663936704E0,1.435693540E-2,1.028913707E-1,9.747760773E0
3.666171873E0,5.742774159E-2,7.776673883E-2,9.781859398E0
3.668404661E0,3.768695518E-2,6.400800496E-2,9.767501831E0
3.670632017E0,2.392822690E-2,8.793623000E-2,9.795618057E0
3.672880613E0,3.349951655E-2,9.750752151E-2,9.790832520E0
3.675117002E0,3.768695518E-2,6.879365444E-2,9.781260490E0
3.677356259E0,3.349951655E-2,9.750752151E-2,9.781260490E0
3.679589597E0,1.435693540E-2,8.793623000E-2,9.776474953E0
3.681826597E0,4.785645381E-2,9.212367237E-2,9.781260490E0
3.684061643E0,1.914258115E-2,8.793623000E-2,9.771689415E0
3.686298703E0,3.888336942E-2,1.070788130E-1,9.752547264E0
3.688537289E0,3.828516230E-2,8.793623000E-2,9.757332802E0
3.690769529E0,4.307080805E-2,9.272187948E-2,9.771689415E0
3.693006834E0,4.785645381E-2,1.160518974E-1,9.786046028E0
3.695242063E0,2.871387079E-2,1.022931710E-1,9.781260490E0
3.697475828E0,1.914258115E-2,9.750752151E-2,9.776474953E0
3.699699949E0,2.392822690E-2,1.022931710E-1,9.771689415E0
3.701951902E0,1.914258115E-2,9.272187948E-2,9.766903877E0
3.704187986E0,2.871387079E-2,1.022931710E-1,9.781260490E0
3.706428403E0,3.349951655E-2,9.750752151E-2,9.805189133E0
3.708660459E0,3.828516230E-2,1.118644550E-1,9.790832520E0
3.710897214E0,2.392822690E-2,9.750752151E-2,9.781260490E0
3.713132993E0,3.828516230E-2,1.070788130E-1,9.766903877E0
3.715366696E0,4.307080805E-2,8.315058798E-2,9.781260490E0
3.717594602E0,3.828516230E-2,9.750752151E-2,9.776474953E0
3.719841795E0,2.871387079E-2,9.272187948E-2,9.776474953E0
3.722078062E0,2.811566554E-2,7.836493850E-2,9.786046028E0
3.724316892E0,4.785645381E-2,8.733802289E-2,9.790832520E0
3.726550596E0,3.349951655E-2,8.315058798E-2,9.762118340E0
3.728787107E0,2.811566554E-2,7.836493850E-2,9.786046028E0
3.731023557E0,3.349951655E-2,8.315058798E-2,9.781260490E0
3.733260984E0,3.828516230E-2,8.793623000E-2,9.771689415E0
3.735496458E0,2.811566554E-2,7.836493850E-2,9.786046028E0
3.737731626E0,1.914258115E-2,7.836493850E-2,9.781260490E0
3.739967648E0,3.828516230E-2,1.022931710E-1,9.786046028E0
3.742204098E0,1.435693540E-2,9.272187948E-2,9.781260490E0
3.744440732E0,4.307080805E-2,8.315058798E-2,9.777072906E0
3.746677000E0,2.871387079E-2,9.272187948E-2,9.786046028E0
3.748913084E0,4.307080805E-2,9.750752151E-2,9.776474953E0
3.751146665E0,4.785645381E-2,8.315058798E-2,9.757930756E0
3.753373350E0,4.307080805E-2,7.836493850E-2,9.762716293E0
3.755616453E0,2.871387079E-2,8.793623000E-2,9.776474953E0
3.757858152E0,2.871387079E-2,9.750752151E-2,9.771689415E0
3.760097165E0,4.307080805E-2,9.750752151E-2,9.776474953E0
3.762331906E0,2.871387079E-2,9.750752151E-2,9.762118340E0
3.764566831E0,2.871387079E-2,8.315058798E-2,9.790832520E0
3.766802976E0,4.785645381E-2,8.315058798E-2,9.772287369E0
3.769039853E0,2.811566554E-2,7.836493850E-2,9.790832520E0
3.771276853E0,3.349951655E-2,7.836493850E-2,9.766903877E0
3.773511961E0,3.349951655E-2,9.750752151E-2,9.766903877E0
3.775747984E0,1.435693540E-2,1.022931710E-1,9.781260490E0
3.777984007E0,9.571290575E-3,9.332008660E-2,9.766903877E0
3.780217527E0,3.349951655E-2,9.750752151E-2,9.781260490E0
3.782441770E0,2.392822690E-2,8.315058798E-2,9.786046028E0
3.784678953E0,2.871387079E-2,1.022931710E-1,9.781260490E0
3.786929746E0,2.871387079E-2,1.070788130E-1,9.762118340E0
3.789169614E0,2.871387079E-2,1.022931710E-1,9.771689415E0
3.791405332E0,3.349951655E-2,8.315058798E-2,9.786046028E0
3.793637937E0,1.914258115E-2,9.750752151E-2,9.781260490E0
3.795874203E0,2.392822690E-2,9.272187948E-2,9.781260490E0
3.798107907E0,4.307080805E-2,7.836493850E-2,9.777072906E0
3.800336240E0,3.828516230E-2,9.272187948E-2,9.762716293E0
3.802583494E0,3.349951655E-2,1.070788130E-1,9.766903877E0
3.804820798E0,3.349951655E-2,8.793623000E-2,9.757332802E0
3.807059323E0,2.871387079E-2,8.793623000E-2,9.766903877E0
3.809291990E0,1.914258115E-2,9.272187948E-2,9.776474953E0
3.811528074E0,3.349951655E-2,1.118644550E-1,9.776474953E0
3.813764402E0,2.871387079E-2,1.118644550E-1,9.776474953E0
3.816000730E0,4.725824669E-2,7.776673883E-2,9.809974670E0
3.818234128E0,2.871387079E-2,9.750752151E-2,9.771689415E0
3.820458555E0,3.828516230E-2,9.272187948E-2,9.781260490E0
3.822697507E0,2.811566554E-2,7.357929647E-2,9.766903877E0
3.824946775E0,3.349951655E-2,7.357929647E-2,9.752547264E0
3.827185056E0,2.392822690E-2,7.836493850E-2,9.771689415E0
3.829421507E0,4.785645381E-2,8.733802289E-2,9.781260490E0
3.831654234E0,1.375873014E-2,7.836493850E-2,9.776474953E0
3.833890623E0,3.828516230E-2,9.272187948E-2,9.766903877E0
3.836127073E0,3.349951655E-2,8.793623000E-2,9.776474953E0
3.838362913E0,2.811566554E-2,7.357929647E-2,9.781260490E0
3.840599363E0,2.392822690E-2,9.272187948E-2,9.752547264E0
3.842836546E0,6.221338734E-2,8.733802289E-2,9.772287369E0
3.845071775E0,4.307080805E-2,8.793623000E-2,9.771689415E0
3.847305905E0,3.828516230E-2,9.750752151E-2,9.771689415E0
3.849532163E0,4.307080805E-2,1.160518974E-1,9.790832520E0
3.851768857E0,2.392822690E-2,8.315058798E-2,9.762118340E0
3.854017087E0,3.828516230E-2,8.793623000E-2,9.781260490E0
3.856255429E0,3.290131316E-2,8.315058798E-2,9.800403595E0
3.858492735E0,3.349951655E-2,1.022931710E-1,9.771689415E0
3.860726865E0,2.871387079E-2,9.272187948E-2,9.786046028E0
3.862959470E0,2.871387079E-2,1.022931710E-1,9.781260490E0
3.865183591E0,3.349951655E-2,1.118644550E-1,9.771689415E0
3.867419553E0,3.828516230E-2,1.070788130E-1,9.766903877E0
3.869655698E0,4.307080805E-2,9.212367237E-2,9.786046028E0
3.871895505E0,3.828516230E-2,9.690931439E-2,9.805189133E0
3.874131833E0,2.392822690E-2,1.070788130E-1,9.795618057E0
3.876369260E0,3.349951655E-2,8.315058798E-2,9.776474953E0
3.878605161E0,3.828516230E-2,8.793623000E-2,9.762118340E0
3.880840269E0,2.392822690E-2,9.750752151E-2,9.790832520E0
3.883076231E0,2.392822690E-2,8.315058798E-2,9.771689415E0
3.885312925E0,2.392822690E-2,9.272187948E-2,9.790832520E0
3.887549192E0,1.914258115E-2,9.750752151E-2,9.752547264E0
3.889785886E0,6.161518395E-2,6.819544733E-2,9.820143700E0
3.892021360E0,1.914258115E-2,7.836493850E-2,9.771689415E0
3.894258176E0,5.264209956E-2,8.733802289E-2,9.791430473E0
3.896495603E0,2.871387079E-2,8.793623000E-2,9.781260490E0
3.898731016E0,1.914258115E-2,9.272187948E-2,9.786046028E0
3.900966795E0,2.871387079E-2,1.070788130E-1,9.771689415E0
3.903202513E0,4.785645381E-2,7.836493850E-2,9.748359680E0
3.905439085E0,3.828516230E-2,8.793623000E-2,9.781260490E0
3.907675413E0,4.247260094E-2,7.836493850E-2,9.786046028E0
3.909911375E0,1.435693540E-2,1.166501045E-1,9.776474953E0
3.912148191E0,4.307080805E-2,9.272187948E-2,9.781260490E0
3.914385191E0,3.349951655E-2,9.272187948E-2,9.795618057E0
3.916620786E0,3.349951655E-2,1.022931710E-1,9.781260490E0
3.918858091E0,2.871387079E-2,9.750752151E-2,9.795618057E0
3.921092526E0,3.349951655E-2,8.793623000E-2,9.786046028E0
3.923329770E0,3.888336942E-2,1.070788130E-1,9.757332802E0
3.925567624E0,3.828516230E-2,1.022931710E-1,9.771689415E0
3.927805356E0,4.785645381E-2,9.212367237E-2,9.786046028E0
3.930038755E0,2.871387079E-2,1.022931710E-1,9.781260490E0
3.932274717E0,2.392822690E-2,1.118644550E-1,9.766903877E0
3.934510374E0,2.392822690E-2,1.022931710E-1,9.776474953E0
3.936749998E0,1.435693540E-2,1.028913707E-1,9.752547264E0
3.938985776E0,6.161518395E-2,7.776673883E-2,9.791430473E0
3.941224912E0,3.828516230E-2,9.272187948E-2,9.786046028E0
3.943455930E0,3.349951655E-2,9.750752151E-2,9.776474953E0
3.945695432E0,2.931207791E-2,1.166501045E-1,9.766903877E0
3.947928708E0,2.871387079E-2,8.793623000E-2,9.781260490E0
3.950163877E0,2.333002165E-2,6.879365444E-2,9.776474953E0
3.952399228E0,2.871387079E-2,1.070788130E-1,9.762118340E0
3.954636960E0,3.828516230E-2,8.315058798E-2,9.786046028E0
3.956876584E0,2.392822690E-2,8.315058798E-2,9.771689415E0
3.959111325E0,3.349951655E-2,9.750752151E-2,9.786046028E0
3.961348203E0,1.914258115E-2,1.022931710E-1,9.771689415E0
3.963582273E0,2.871387079E-2,8.793623000E-2,9.776474953E0
3.965822629E0,1.854437590E-2,6.879365444E-2,9.776474953E0
3.968060484E0,9.571290575E-3,1.022931710E-1,9.781260490E0
3.970307553E0,3.768695518E-2,7.357929647E-2,9.795618057E0
3.972529904E0,-0.000000000E0,8.853443712E-2,9.781260490E0
3.974764341E0,3.349951655E-2,8.793623000E-2,9.766903877E0
3.976999936E0,3.290131316E-2,6.879365444E-2,9.766903877E0
3.979235837E0,3.349951655E-2,8.315058798E-2,9.786046028E0
3.981475583E0,3.290131316E-2,7.836493850E-2,9.795618057E0
3.983707822E0,2.871387079E-2,8.793623000E-2,9.781260490E0
3.985948118E0,2.871387079E-2,8.793623000E-2,9.795618057E0
3.988179319E0,2.871387079E-2,1.022931710E-1,9.786046028E0
3.990416624E0,3.828516230E-2,9.272187948E-2,9.762118340E0
3.992653440E0,1.435693540E-2,8.793623000E-2,9.771689415E0
3.994892881E0,2.392822690E-2,9.272187948E-2,9.766903877E0
3.997125852E0,1.914258115E-2,1.022931710E-1,9.771689415E0
3.999362119E0,2.392822690E-2,9.272187948E-2,9.786046028E0
4.001599424E0,2.392822690E-2,1.118644550E-1,9.786046028E0
4.003840086E0,2.871387079E-2,1.022931710E-1,9.766903877E0
4.006071591E0,3.349951655E-2,9.750752151E-2,9.800403595E0
4.008309994E0,3.409772366E-2,1.214357466E-1,9.771689415E0
4.010541379E0,3.409772366E-2,1.214357466E-1,9.766903877E0
4.012780271E0,2.392822690E-2,1.070788130E-1,9.786046028E0
4.015018064E0,2.392822690E-2,8.793623000E-2,9.781260490E0
4.017256772E0,2.871387079E-2,1.022931710E-1,9.766903877E0
4.019490476E0,2.392822690E-2,9.750752151E-2,9.781260490E0
4.021728390E0,3.828516230E-2,9.750752151E-2,9.790832520E0
4.023961057E0,3.828516230E-2,7.357929647E-2,9.762716293E0
4.026199582E0,2.931207791E-2,1.118644550E-1,9.762118340E0
4.028432065E0,4.307080805E-2,9.272187948E-2,9.772287369E0
4.030669858E0,3.349951655E-2,9.750752151E-2,9.786046028E0
4.032906857E0,3.409772366E-2,1.214357466E-1,9.786046028E0
4.035143796E0,2.392822690E-2,8.315058798E-2,9.776474953E0
4.037379880E0,3.828516230E-2,8.315058798E-2,9.790832520E0
4.039617490E0,3.828516230E-2,8.315058798E-2,9.790832520E0
4.041851499E0,3.349951655E-2,8.315058798E-2,9.776474953E0
4.044088621E0,3.349951655E-2,7.836493850E-2,9.762118340E0
4.046324521E0,2.871387079E-2,8.315058798E-2,9.790832520E0
4.048560178E0,4.307080805E-2,8.315058798E-2,9.790832520E0
4.050796628E0,2.871387079E-2,9.272187948E-2,9.786046028E0
4.053030881E0,3.349951655E-2,9.750752151E-2,9.781260490E0
4.055268918E0,3.768695518E-2,8.315058798E-2,9.795618057E0
4.057509275E0,2.871387079E-2,9.750752151E-2,9.800403595E0
4.059742307E0,3.349951655E-2,8.793623000E-2,9.786046028E0
4.061981443E0,8.973085321E-3,7.836493850E-2,9.790832520E0
4.064214230E0,2.392822690E-2,9.272187948E-2,9.781260490E0
4.066452146E0,2.811566554E-2,7.836493850E-2,9.809974670E0
4.068685300E0,2.392822690E-2,8.315058798E-2,9.786046028E0
4.070922483E0,5.682953820E-2,7.298108935E-2,9.786644936E0
4.073162046E0,4.247260094E-2,7.298108935E-2,9.805189133E0
4.075400144E0,3.349951655E-2,7.836493850E-2,9.781260490E0
4.077632444E0,2.871387079E-2,1.118644550E-1,9.776474953E0
4.079866757E0,2.333002165E-2,7.836493850E-2,9.800403595E0
4.082101377E0,2.871387079E-2,9.272187948E-2,9.776474953E0
4.084339231E0,4.307080805E-2,9.750752151E-2,9.772287369E0
4.086576780E0,2.871387079E-2,1.022931710E-1,9.762118340E0
4.088812681E0,1.914258115E-2,9.272187948E-2,9.786046028E0
4.091052487E0,2.392822690E-2,8.793623000E-2,9.790832520E0
4.093295835E0,3.349951655E-2,9.272187948E-2,9.786046028E0
4.095522214E0,2.392822690E-2,9.750752151E-2,9.776474953E0
4.097762937E0,3.349951655E-2,7.836493850E-2,9.771689415E0
4.099991391E0,2.392822690E-2,9.272187948E-2,9.776474953E0
4.102232297E0,9.571290575E-3,9.750752151E-2,9.786046028E0
4.104465207E0,2.392822690E-2,9.750752151E-2,9.786046028E0
4.106703794E0,2.392822690E-2,1.022931710E-1,9.766903877E0
4.108939023E0,3.349951655E-2,1.070788130E-1,9.781260490E0
4.111179441E0,3.349951655E-2,9.272187948E-2,9.790832520E0
4.113411863E0,3.828516230E-2,1.070788130E-1,9.786046028E0
4.115651060E0,4.307080805E-2,9.272187948E-2,9.781260490E0
4.117883176E0,2.392822690E-2,9.272187948E-2,9.762118340E0
4.120120969E0,3.828516230E-2,9.750752151E-2,9.771689415E0
4.122358945E0,3.828516230E-2,9.750752151E-2,9.781260490E0
4.124592771E0,4.785645287E-3,8.374879509E-2,9.781260490E0
4.126831662E0,1.854437590E-2,7.836493850E-2,9.786046028E0
4.129066159E0,-0.000000000E0,8.374879509E-2,9.781260490E0
4.131303464E0,1.435693540E-2,1.022931710E-1,9.776474953E0
4.133540891E0,2.392822690E-2,9.272187948E-2,9.786046028E0
4.135782101E0,2.392822690E-2,9.272187948E-2,9.800403595E0
4.138008848E0,3.828516230E-2,8.793623000E-2,9.781260490E0
4.140246519E0,1.914258115E-2,8.793623000E-2,9.786046028E0
4.142482786E0,1.435693540E-2,8.315058798E-2,9.771689415E0
4.144720518E0,2.392822690E-2,9.750752151E-2,9.786046028E0
4.146962278E0,1.914258115E-2,9.750752151E-2,9.771689415E0
4.149190488E0,3.349951655E-2,8.315058798E-2,9.766903877E0
4.151429013E0,9.571290575E-3,9.750752151E-2,9.781260490E0
4.153664548E0,3.349951655E-2,9.272187948E-2,9.786046028E0
4.155902891E0,9.571290575E-3,8.374879509E-2,9.762118340E0
4.158136656E0,3.349951655E-2,7.357929647E-2,9.766903877E0
4.160371153E0,4.307080805E-2,9.272187948E-2,9.776474953E0
4.162610288E0,1.435693540E-2,1.022931710E-1,9.781260490E0
4.164847897E0,1.914258115E-2,1.166501045E-1,9.786046028E0
4.167080564E0,3.349951655E-2,9.750752151E-2,9.752547264E0
4.169316952E0,2.931207791E-2,1.070788130E-1,9.752547264E0
4.171553525E0,2.871387079E-2,9.272187948E-2,9.786046028E0
4.173794553E0,3.828516230E-2,9.750752151E-2,9.790832520E0
4.176029721E0,2.392822690E-2,8.315058798E-2,9.776474953E0
4.178265989E0,1.435693540E-2,8.793623000E-2,9.766903877E0
4.180497801E0,3.349951655E-2,9.750752151E-2,9.771689415E0
4.182737180E0,2.392822690E-2,9.272187948E-2,9.786046028E0
4.184971311E0,3.828516230E-2,9.750752151E-2,9.786046028E0
4.187210935E0,2.871387079E-2,8.793623000E-2,9.790832520E0
4.189443417E0,2.871387079E-2,1.022931710E-1,9.805189133E0
4.191680844E0,2.871387079E-2,1.022931710E-1,9.771689415E0
4.193918698E0,1.914258115E-2,1.118644550E-1,9.790832520E0
4.196155271E0,3.349951655E-2,9.272187948E-2,9.776474953E0
4.198395139E0,2.871387079E-2,1.022931710E-1,9.771689415E0
4.200624265E0,3.349951655E-2,1.022931710E-1,9.786046028E0
4.202857846E0,2.392822690E-2,9.750752151E-2,9.776474953E0
4.205095639E0,3.828516230E-2,7.836493850E-2,9.776474953E0
4.207335752E0,3.828516230E-2,8.315058798E-2,9.776474953E0
4.209570798E0,1.914258115E-2,9.750752151E-2,9.776474953E0
4.211807309E0,3.349951655E-2,1.118644550E-1,9.805189133E0
4.214044981E0,2.392822690E-2,1.070788130E-1,9.781260490E0
4.216280454E0,2.811566554E-2,6.879365444E-2,9.795618057E0
4.218519712E0,2.333002165E-2,8.315058798E-2,9.795618057E0
4.220750302E0,2.871387079E-2,8.315058798E-2,9.776474953E0
4.222987485E0,3.349951655E-2,9.272187948E-2,9.781260490E0
4.225225888E0,3.768695518E-2,6.400800496E-2,9.795618057E0
4.227459959E0,2.811566554E-2,8.793623000E-2,9.805189133E0
4.229695371E0,2.392822690E-2,8.315058798E-2,9.781260490E0
4.231931455E0,2.871387079E-2,8.793623000E-2,9.766903877E0
4.234169736E0,1.435693540E-2,8.315058798E-2,9.776474953E0
4.236406919E0,3.349951655E-2,8.793623000E-2,9.790832520E0
4.238642270E0,1.435693540E-2,9.750752151E-2,9.790832520E0
4.240877561E0,-4.187439568E-3,1.172483116E-1,9.762118340E0
4.243112729E0,9.032905847E-2,7.716853172E-2,9.820143700E0
4.245350583E0,-1.435693540E-2,8.374879509E-2,9.766903877E0
4.247587827E0,4.307080805E-2,8.315058798E-2,9.771689415E0
4.249822629E0,3.349951655E-2,1.022931710E-1,9.757332802E0
4.252061826E0,2.871387079E-2,8.315058798E-2,9.786046028E0
4.254296690E0,3.290131316E-2,8.793623000E-2,9.795618057E0
4.256533872E0,3.290131316E-2,8.793623000E-2,9.795618057E0
4.258767880E0,2.392822690E-2,9.272187948E-2,9.790832520E0
4.261003476E0,2.871387079E-2,9.750752151E-2,9.781260490E0
4.263239560E0,3.349951655E-2,9.750752151E-2,9.800403595E0
4.265476987E0,1.914258115E-2,1.022931710E-1,9.790832520E0
4.267715879E0,1.435693540E-2,8.793623000E-2,9.771689415E0
4.269955137E0,3.290131316E-2,8.793623000E-2,9.800403595E0
4.272185910E0,8.973085321E-3,8.793623000E-2,9.800403595E0
4.274423764E0,2.871387079E-2,8.315058798E-2,9.776474953E0
4.276656491E0,2.871387079E-2,8.793623000E-2,9.790832520E0
4.278897031E0,1.914258115E-2,9.272187948E-2,9.757332802E0
4.281128964E0,4.247260094E-2,7.836493850E-2,9.786046028E0
4.283367795E0,-4.785645287E-3,1.028913707E-1,9.747760773E0
4.285605832E0,4.307080805E-2,1.070788130E-1,9.786046028E0
4.287839292E0,3.349951655E-2,1.070788130E-1,9.771689415E0
4.290076231E0,1.914258115E-2,9.272187948E-2,9.776474953E0
4.292311399E0,2.333002165E-2,7.836493850E-2,9.781260490E0
4.294553159E0,1.914258115E-2,8.315058798E-2,9.766903877E0
4.296783811E0,9.571290575E-3,9.272187948E-2,9.795618057E0
4.299022275E0,4.785645287E-3,1.070788130E-1,9.790832520E0
4.301256101E0,2.871387079E-2,8.793623000E-2,9.786046028E0
4.303493772E0,2.871387079E-2,1.022931710E-1,9.771689415E0
4.305730893E0,3.349951655E-2,9.272187948E-2,9.790832520E0
4.307969357E0,1.914258115E-2,1.022931710E-1,9.790832520E0
4.310200864E0,2.392822690E-2,1.022931710E-1,9.776474953E0
4.312438535E0,3.349951655E-2,1.070788130E-1,9.776474953E0
4.314675412E0,2.811566554E-2,7.357929647E-2,9.776474953E0
4.316910398E0,2.871387079E-2,8.315058798E-2,9.781260490E0
4.319145811E0,2.871387079E-2,9.272187948E-2,9.790832520E0
4.321381955E0,3.349951655E-2,8.315058798E-2,9.781260490E0
4.323619199E0,1.914258115E-2,8.793623000E-2,9.786046028E0
4.325855589E0,1.375873014E-2,6.879365444E-2,9.790832520E0
4.328089902E0,3.290131316E-2,7.357929647E-2,9.786046028E0
4.330324705E0,1.375873014E-2,7.836493850E-2,9.776474953E0
4.332565854E0,3.349951655E-2,1.070788130E-1,9.766903877E0
4.334811277E0,1.914258115E-2,6.879365444E-2,9.752547264E0
4.337039060E0,1.854437590E-2,7.836493850E-2,9.790832520E0
4.339286618E0,2.392822690E-2,9.750752151E-2,9.781260490E0
4.341520261E0,1.435693540E-2,7.836493850E-2,9.771689415E0
4.343760312E0,3.349951655E-2,9.750752151E-2,9.786046028E0
4.345992612E0,2.871387079E-2,8.793623000E-2,9.786046028E0
4.348225522E0,2.871387079E-2,8.793623000E-2,9.771689415E0
4.350452818E0,2.871387079E-2,9.272187948E-2,9.766903877E0
4.352701170E0,2.871387079E-2,9.750752151E-2,9.776474953E0
4.354937742E0,1.914258115E-2,1.022931710E-1,9.776474953E0
4.357176572E0,3.349951655E-2,9.750752151E-2,9.781260490E0
4.359410398E0,3.349951655E-2,1.070788130E-1,9.781260490E0
4.361644223E0,2.333002165E-2,8.315058798E-2,9.790832520E0
4.363867856E0,2.333002165E-2,8.793623000E-2,9.795618057E0
4.366106626E0,3.828516230E-2,9.750752151E-2,9.762118340E0
4.368351804E0,2.871387079E-2,9.750752151E-2,9.771689415E0
4.370582516E0,3.290131316E-2,7.836493850E-2,9.805189133E0
4.372830624E0,1.854437590E-2,8.315058798E-2,9.786046028E0
4.375064023E0,1.435693540E-2,9.272187948E-2,9.800403595E0
4.377304441E0,3.828516230E-2,1.118644550E-1,9.776474953E0
4.379537290E0,9.571290575E-3,1.022931710E-1,9.776474953E0
4.381772398E0,9.571290575E-3,1.022931710E-1,9.781260490E0
4.384008238E0,1.435693540E-2,9.750752151E-2,9.766903877E0
4.386244810E0,1.435693540E-2,9.332008660E-2,9.747760773E0
4.388481199E0,2.871387079E-2,1.022931710E-1,9.776474953E0
4.390717527E0,2.871387079E-2,1.070788130E-1,9.776474953E0
4.392953611E0,2.871387079E-2,1.118644550E-1,9.781260490E0
4.395190427E0,4.307080805E-2,9.272187948E-2,9.781260490E0
4.397427244E0,3.768695518E-2,7.836493850E-2,9.786046028E0
4.399662595E0,4.307080805E-2,9.750752151E-2,9.786046028E0
4.401894101E0,2.392822690E-2,1.022931710E-1,9.766903877E0
4.404113767E0,3.349951655E-2,9.272187948E-2,9.790832520E0
4.406359617E0,2.392822690E-2,8.315058798E-2,9.781260490E0
4.408604978E0,2.333002165E-2,8.315058798E-2,9.800403595E0
4.410837521E0,2.871387079E-2,9.750752151E-2,9.786046028E0
4.413083249E0,4.307080805E-2,1.022931710E-1,9.762716293E0
4.415317380E0,4.307080805E-2,8.793623000E-2,9.771689415E0
4.417555417E0,2.392822690E-2,8.793623000E-2,9.766903877E0
4.419788816E0,2.392822690E-2,9.272187948E-2,9.766903877E0
4.422024839E0,2.871387079E-2,8.793623000E-2,9.790832520E0
4.424261228E0,2.392822690E-2,9.750752151E-2,9.766903877E0
4.426497739E0,2.392822690E-2,8.315058798E-2,9.771689415E0
4.428733579E0,3.349951655E-2,8.315058798E-2,9.762118340E0
4.430967282E0,2.871387079E-2,8.793623000E-2,9.781260490E0
4.433195432E0,2.871387079E-2,8.793623000E-2,9.781260490E0
4.435442380E0,1.914258115E-2,1.070788130E-1,9.781260490E0
4.437678770E0,3.349951655E-2,8.315058798E-2,9.762118340E0
4.439917905E0,2.392822690E-2,8.793623000E-2,9.786046028E0
4.442151182E0,2.871387079E-2,9.272187948E-2,9.776474953E0
4.444387693E0,3.828516230E-2,1.022931710E-1,9.786046028E0
4.446624021E0,2.392822690E-2,8.315058798E-2,9.757332802E0
4.448861692E0,1.854437590E-2,7.357929647E-2,9.800403595E0
4.451097593E0,4.247260094E-2,8.315058798E-2,9.790832520E0
4.453332517E0,2.392822690E-2,8.793623000E-2,9.771689415E0
4.455568539E0,3.828516230E-2,8.793623000E-2,9.781260490E0
4.457804806E0,2.392822690E-2,1.022931710E-1,9.776474953E0
4.460041318E0,1.914258115E-2,8.793623000E-2,9.781260490E0
4.462277830E0,2.871387079E-2,7.836493850E-2,9.766903877E0
4.464513914E0,4.307080805E-2,9.750752151E-2,9.781260490E0
4.466750486E0,2.871387079E-2,9.272187948E-2,9.771689415E0
4.468985349E0,2.871387079E-2,9.272187948E-2,9.781260490E0
4.471215086E0,1.914258115E-2,9.272187948E-2,9.766903877E0
4.473458982E0,3.349951655E-2,9.272187948E-2,9.776474953E0
4.475695005E0,3.349951655E-2,1.022931710E-1,9.776474953E0
4.477933042E0,4.307080805E-2,1.022931710E-1,9.776474953E0
4.480167722E0,9.571290575E-3,9.810572863E-2,9.757332802E0
4.482403989E0,3.349951655E-2,8.793623000E-2,9.766903877E0
4.484640439E0,3.828516230E-2,1.118644550E-1,9.766903877E0
4.486877439E0,1.435693540E-2,8.315058798E-2,9.776474953E0
4.489112791E0,2.333002165E-2,8.315058798E-2,9.790832520E0
4.491349119E0,9.571290575E-3,9.810572863E-2,9.766903877E0
4.493584898E0,2.871387079E-2,7.357929647E-2,9.766903877E0
4.495821165E0,1.914258115E-2,9.750752151E-2,9.800403595E0
4.498055601E0,2.392822690E-2,8.793623000E-2,9.781260490E0
4.500287107E0,4.307080805E-2,9.272187948E-2,9.776474953E0
4.502530515E0,2.871387079E-2,8.793623000E-2,9.781260490E0
4.504767393E0,1.375873014E-2,6.400800496E-2,9.790832520E0
4.507004331E0,1.914258115E-2,9.750752151E-2,9.786046028E0
4.509238706E0,1.914258115E-2,8.793623000E-2,9.762118340E0
4.511474789E0,3.349951655E-2,8.793623000E-2,9.776474953E0
4.513711179E0,3.349951655E-2,8.793623000E-2,9.781260490E0
4.515947752E0,2.871387079E-2,8.315058798E-2,9.786046028E0
4.518181150E0,3.828516230E-2,9.750752151E-2,9.781260490E0
4.520409726E0,2.871387079E-2,9.272187948E-2,9.781260490E0
4.522657407E0,2.333002165E-2,6.400800496E-2,9.790832520E0
4.524889646E0,2.871387079E-2,8.793623000E-2,9.786046028E0
4.527116941E0,3.349951655E-2,8.315058798E-2,9.771689415E0
4.529353269E0,2.333002165E-2,7.836493850E-2,9.786046028E0
4.531601560E0,2.392822690E-2,7.357929647E-2,9.766903877E0
4.533840573E0,3.828516230E-2,8.315058798E-2,9.766903877E0
4.536076963E0,2.871387079E-2,7.836493850E-2,9.762118340E0
4.538310728E0,2.811566554E-2,6.879365444E-2,9.795618057E0
4.540547422E0,2.392822690E-2,9.272187948E-2,9.766903877E0
4.542782896E0,2.871387079E-2,1.022931710E-1,9.786046028E0
4.545018674E0,2.392822690E-2,9.750752151E-2,9.771689415E0
4.547254820E0,3.290131316E-2,8.315058798E-2,9.800403595E0
4.549491148E0,3.828516230E-2,1.070788130E-1,9.790832520E0
4.551727842E0,2.871387079E-2,1.070788130E-1,9.786046028E0
4.553964109E0,2.871387079E-2,9.272187948E-2,9.776474953E0
4.556200498E0,3.349951655E-2,9.750752151E-2,9.781260490E0
4.558437437E0,1.914258115E-2,1.022931710E-1,9.781260490E0
4.560669797E0,3.828516230E-2,1.022931710E-1,9.776474953E0
4.562897947E0,1.914258115E-2,1.070788130E-1,9.762118340E0
4.565144955E0,1.914258115E-2,1.022931710E-1,9.786046028E0
4.567378049E0,1.435693540E-2,1.118644550E-1,9.776474953E0
4.569607236E0,2.871387079E-2,8.315058798E-2,9.766903877E0
4.571854002E0,4.307080805E-2,8.315058798E-2,9.776474953E0
4.574090574E0,1.914258115E-2,8.793623000E-2,9.766903877E0
4.576330747E0,2.871387079E-2,7.836493850E-2,9.776474953E0
4.578562986E0,2.392822690E-2,8.315058798E-2,9.776474953E0
4.580797727E0,2.871387079E-2,9.272187948E-2,9.776474953E0
4.583029783E0,1.914258115E-2,1.022931710E-1,9.790832520E0
4.585271421E0,2.871387079E-2,9.272187948E-2,9.776474953E0
4.587504758E0,2.333002165E-2,7.836493850E-2,9.781260490E0
4.589733518E0,2.392822690E-2,9.272187948E-2,9.790832520E0
4.591981687E0,1.914258115E-2,8.315058798E-2,9.771689415E0
4.594217527E0,3.349951655E-2,1.166501045E-1,9.786046028E0
4.596455931E0,2.392822690E-2,1.070788130E-1,9.781260490E0
4.598688840E0,2.811566554E-2,7.836493850E-2,9.786046028E0
4.600924741E0,2.871387079E-2,8.315058798E-2,9.776474953E0
4.603161375E0,4.307080805E-2,8.315058798E-2,9.757332802E0
4.605397886E0,2.871387079E-2,8.793623000E-2,9.786046028E0
4.607631040E0,2.871387079E-2,8.315058798E-2,9.766903877E0
4.609858457E0,3.349951655E-2,8.315058798E-2,9.776474953E0
4.612107603E0,3.828516230E-2,9.272187948E-2,9.786046028E0
4.614342710E0,9.571290575E-3,8.793623000E-2,9.771689415E0
4.616581601E0,2.392822690E-2,8.793623000E-2,9.766903877E0
